
time,ax,ay,az,Latitude,Longitude,Speed (m/s),
0.021255,0.0000,0.0000,0.0000,0.00000000,0.00000000,0.00000000,
0.028586,0.0000,0.0000,0.0000,55.75410016,48.74004864,0.00000000,
0.029114,0.0000,0.0000,0.0000,55.75410016,48.74004864,0.00000000,
0.038800,0.0000,0.0000,0.0000,55.75410016,48.74004864,0.00000000,
0.049740,0.0000,0.0000,0.0000,55.75410016,48.74004864,0.00000000,
0.058594,0.0000,0.0000,0.0000,55.75410016,48.74004864,0.00000000,
0.058953,0.0000,0.0000,0.0000,55.75410016,48.74004864,0.00000000,
0.068184,0.0000,0.0000,0.0000,55.75410016,48.74004864,0.00000000,
0.077936,0.0000,0.0000,0.0000,55.75410016,48.74004864,0.00000000,
0.078355,0.0000,0.0000,0.0000,55.75410016,48.74004864,0.00000000,
0.087896,0.0000,0.0000,0.0000,55.75410016,48.74004864,0.00000000,
0.096950,0.0000,0.0000,0.0000,55.75410016,48.74004864,0.00000000,
0.097317,0.0000,0.0000,0.0000,55.75410016,48.74004864,0.00000000,
0.106794,0.0000,0.0000,0.0000,55.75410016,48.74004864,0.00000000,
0.116977,0.0000,0.0000,0.0000,55.75410016,48.74004864,0.00000000,
0.117442,0.0000,0.0000,0.0000,55.75410016,48.74004864,0.00000000,
0.126297,0.0000,0.0000,0.0000,55.75410016,48.74004864,0.00000000,
0.135932,0.0000,0.0000,0.0000,55.75410016,48.74004864,0.00000000,
0.136328,0.0000,0.0000,0.0000,55.75410016,48.74004864,0.00000000,
0.145294,0.0000,0.0000,0.0000,55.75410016,48.74004864,0.00000000,
0.154884,0.0000,0.0000,0.0000,55.75410016,48.74004864,0.00000000,
0.155276,0.0000,0.0000,0.0000,55.75410016,48.74004864,0.00000000,
0.155538,0.3358,-0.1247,-0.1689,55.75410016,48.74004864,0.00000000,
0.165149,0.3358,-0.1247,-0.1689,55.75410016,48.74004864,0.00000000,
0.174105,0.3358,-0.1247,-0.1689,55.75410016,48.74004864,0.00000000,
0.174529,0.3358,-0.1247,-0.1689,55.75410016,48.74004864,0.00000000,
0.183974,0.3358,-0.1247,-0.1689,55.75410016,48.74004864,0.00000000,
0.193243,0.3358,-0.1247,-0.1689,55.75410016,48.74004864,0.00000000,
0.193755,0.3358,-0.1247,-0.1689,55.75410016,48.74004864,0.00000000,
0.194057,0.2437,-0.1180,0.6408,55.75410016,48.74004864,0.00000000,
0.203511,0.2437,-0.1180,0.6408,55.75410016,48.74004864,0.00000000,
0.213076,0.2437,-0.1180,0.6408,55.75410016,48.74004864,0.00000000,
0.213641,0.2437,-0.1180,0.6408,55.75410016,48.74004864,0.00000000,
0.222616,0.2437,-0.1180,0.6408,55.75410016,48.74004864,0.00000000,
0.232668,0.2437,-0.1180,0.6408,55.75410016,48.74004864,0.00000000,
0.233084,-0.3548,0.3995,-0.0934,55.75410016,48.74004864,0.00000000,
0.233567,-0.3548,0.3995,-0.0934,55.75410016,48.74004864,0.00000000,
0.242329,-0.3548,0.3995,-0.0934,55.75410016,48.74004864,0.00000000,
0.250724,-0.3548,0.3995,-0.0934,55.75410016,48.74004864,0.00000000,
0.251171,-0.3548,0.3995,-0.0934,55.75410016,48.74004864,0.00000000,
0.260693,-0.3548,0.3995,-0.0934,55.75410016,48.74004864,0.00000000,
0.270922,-0.3548,0.3995,-0.0934,55.75410016,48.74004864,0.00000000,
0.271349,0.0243,0.2857,-0.0667,55.75410016,48.74004864,0.00000000,
0.271895,0.0243,0.2857,-0.0667,55.75410016,48.74004864,0.00000000,
0.281406,0.0243,0.2857,-0.0667,55.75410016,48.74004864,0.00000000,
0.290314,0.0243,0.2857,-0.0667,55.75410016,48.74004864,0.00000000,
0.290715,0.0243,0.2857,-0.0667,55.75410016,48.74004864,0.00000000,
0.299604,0.0243,0.2857,-0.0667,55.75410016,48.74004864,0.00000000,
0.309125,0.0243,0.2857,-0.0667,55.75410016,48.74004864,0.00000000,
0.309517,0.0243,0.2857,-0.0667,55.75410016,48.74004864,0.00000000,
0.309883,0.2739,-0.0817,0.5727,55.75410016,48.74004864,0.00000000,
0.317991,0.2739,-0.0817,0.5727,55.75410016,48.74004864,0.00000000,
0.327675,0.2739,-0.0817,0.5727,55.75410016,48.74004864,0.00000000,
0.328123,0.2739,-0.0817,0.5727,55.75410016,48.74004864,0.00000000,
0.338359,0.2739,-0.0817,0.5727,55.75410016,48.74004864,0.00000000,
0.349272,0.2739,-0.0817,0.5727,55.75410016,48.74004864,0.00000000,
0.349708,0.2739,-0.0817,0.5727,55.75410016,48.74004864,0.00000000,
0.350024,-0.3752,0.7612,-0.4852,55.75410016,48.74004864,0.00000000,
0.357124,-0.3752,0.7612,-0.4852,55.75410016,48.74004864,0.00000000,
0.366226,-0.3752,0.7612,-0.4852,55.75410016,48.74004864,0.00000000,
0.366629,-0.3752,0.7612,-0.4852,55.75410016,48.74004864,0.00000000,
0.376193,-0.3752,0.7612,-0.4852,55.75410016,48.74004864,0.00000000,
0.385117,-0.3752,0.7612,-0.4852,55.75410016,48.74004864,0.00000000,
0.385504,-0.3752,0.7612,-0.4852,55.75410016,48.74004864,0.00000000,
0.385768,-0.0641,1.0716,-1.0682,55.75410016,48.74004864,0.00000000,
0.395582,-0.0641,1.0716,-1.0682,55.75410016,48.74004864,0.00000000,
0.405857,-0.0641,1.0716,-1.0682,55.75410016,48.74004864,0.00000000,
0.406332,-0.0641,1.0716,-1.0682,55.75410016,48.74004864,0.00000000,
0.415107,-0.0641,1.0716,-1.0682,55.75410016,48.74004864,0.00000000,
0.424706,-0.0641,1.0716,-1.0682,55.75410016,48.74004864,0.00000000,
0.425154,-0.0641,1.0716,-1.0682,55.75410016,48.74004864,0.00000000,
0.425452,0.7314,0.9361,-1.3153,55.75410016,48.74004864,0.00000000,
0.433484,0.7314,0.9361,-1.3153,55.75410016,48.74004864,0.00000000,
0.443984,0.7314,0.9361,-1.3153,55.75410016,48.74004864,0.00000000,
0.444496,0.7314,0.9361,-1.3153,55.75410016,48.74004864,0.00000000,
0.453484,0.7314,0.9361,-1.3153,55.75410016,48.74004864,0.00000000,
0.464307,0.7314,0.9361,-1.3153,55.75410016,48.74004864,0.00000000,
0.464812,0.7314,0.9361,-1.3153,55.75410016,48.74004864,0.00000000,
0.465158,0.4454,0.9238,-0.7210,55.75410016,48.74004864,0.00000000,
0.472742,0.4454,0.9238,-0.7210,55.75410016,48.74004864,0.00000000,
0.482482,0.4454,0.9238,-0.7210,55.75410016,48.74004864,0.00000000,
0.483106,0.4454,0.9238,-0.7210,55.75410016,48.74004864,0.00000000,
0.491561,0.4454,0.9238,-0.7210,55.75410016,48.74004864,0.00000000,
0.500772,0.4454,0.9238,-0.7210,55.75410016,48.74004864,0.00000000,
0.501168,0.4454,0.9238,-0.7210,55.75410016,48.74004864,0.00000000,
0.501436,0.8337,0.5725,-0.0929,55.75410016,48.74004864,0.00000000,
0.510224,0.8337,0.5725,-0.0929,55.75410016,48.74004864,0.00000000,
0.522322,0.8337,0.5725,-0.0929,55.75410016,48.74004864,0.00000000,
0.522746,0.8337,0.5725,-0.0929,55.75410016,48.74004864,0.00000000,
0.529919,0.8337,0.5725,-0.0929,55.75410016,48.74004864,0.00000000,
0.540259,0.8337,0.5725,-0.0929,55.75410016,48.74004864,0.00000000,
0.540649,0.8337,0.5725,-0.0929,55.75410016,48.74004864,0.00000000,
0.540933,0.1240,0.9932,-1.3389,55.75410016,48.74004864,0.00000000,
0.548899,0.1240,0.9932,-1.3389,55.75410016,48.74004864,0.00000000,
0.559321,0.1240,0.9932,-1.3389,55.75410016,48.74004864,0.00000000,
0.559700,0.1240,0.9932,-1.3389,55.75410016,48.74004864,0.00000000,
0.568752,0.1240,0.9932,-1.3389,55.75410016,48.74004864,0.00000000,
0.578388,0.1240,0.9932,-1.3389,55.75410016,48.74004864,0.00000000,
0.578872,0.1240,0.9932,-1.3389,55.75410016,48.74004864,0.00000000,
0.579275,0.5762,1.1494,-1.1237,55.75410016,48.74004864,0.00000000,
0.588296,0.5762,1.1494,-1.1237,55.75410016,48.74004864,0.00000000,
0.597704,0.5762,1.1494,-1.1237,55.75410016,48.74004864,0.00000000,
0.598138,0.5762,1.1494,-1.1237,55.75410016,48.74004864,0.00000000,
0.607727,0.5762,1.1494,-1.1237,55.75410016,48.74004864,0.00000000,
0.616367,0.5762,1.1494,-1.1237,55.75410016,48.74004864,0.00000000,
0.616870,0.5762,1.1494,-1.1237,55.75410016,48.74004864,0.00000000,
0.617213,0.6429,1.5811,-1.0672,55.75410016,48.74004864,0.00000000,
0.627374,0.6429,1.5811,-1.0672,55.75410016,48.74004864,0.00000000,
0.636114,0.6429,1.5811,-1.0672,55.75410016,48.74004864,0.00000000,
0.636513,0.6429,1.5811,-1.0672,55.75410016,48.74004864,0.00000000,
0.646091,0.6429,1.5811,-1.0672,55.75410016,48.74004864,0.00000000,
0.655571,0.6429,1.5811,-1.0672,55.75410016,48.74004864,0.00000000,
0.655990,0.6429,1.5811,-1.0672,55.75410016,48.74004864,0.00000000,
0.656279,0.1821,2.2525,-0.9221,55.75410016,48.74004864,0.00000000,
0.665252,0.1821,2.2525,-0.9221,55.75410016,48.74004864,0.00000000,
0.674681,0.1821,2.2525,-0.9221,55.75410016,48.74004864,0.00000000,
0.675094,0.1821,2.2525,-0.9221,55.75410016,48.74004864,0.00000000,
0.684164,0.1821,2.2525,-0.9221,55.75410016,48.74004864,0.00000000,
0.693545,0.1821,2.2525,-0.9221,55.75410016,48.74004864,0.00000000,
0.694022,0.1821,2.2525,-0.9221,55.75410016,48.74004864,0.00000000,
0.694362,0.9481,1.9938,-0.7250,55.75410016,48.74004864,0.00000000,
0.703954,0.9481,1.9938,-0.7250,55.75410016,48.74004864,0.00000000,
0.712777,0.9481,1.9938,-0.7250,55.75410016,48.74004864,0.00000000,
0.713215,0.9481,1.9938,-0.7250,55.75410016,48.74004864,0.00000000,
0.723033,0.9481,1.9938,-0.7250,55.75410016,48.74004864,0.00000000,
0.732251,0.7695,1.8373,-0.4213,55.75410016,48.74004864,0.00000000,
0.732922,0.7695,1.8373,-0.4213,55.75410016,48.74004864,0.00000000,
0.733210,0.7695,1.8373,-0.4213,55.75410016,48.74004864,0.00000000,
0.743282,0.7695,1.8373,-0.4213,55.75410016,48.74004864,0.00000000,
0.751595,0.7695,1.8373,-0.4213,55.75410016,48.74004864,0.00000000,
0.752007,0.7695,1.8373,-0.4213,55.75410016,48.74004864,0.00000000,
0.762700,0.7695,1.8373,-0.4213,55.75410016,48.74004864,0.00000000,
0.770888,0.7695,1.8373,-0.4213,55.75410016,48.74004864,0.00000000,
0.771272,0.7695,1.8373,-0.4213,55.75410016,48.74004864,0.00000000,
0.771541,0.4343,1.6673,-0.8050,55.75410016,48.74004864,0.00000000,
0.780414,0.4343,1.6673,-0.8050,55.75410016,48.74004864,0.00000000,
0.789839,0.4343,1.6673,-0.8050,55.75410016,48.74004864,0.00000000,
0.790268,0.4343,1.6673,-0.8050,55.75410016,48.74004864,0.00000000,
0.798581,0.4343,1.6673,-0.8050,55.75410016,48.74004864,0.00000000,
0.808948,0.4343,1.6673,-0.8050,55.75410016,48.74004864,0.00000000,
0.809312,0.4343,1.6673,-0.8050,55.75410016,48.74004864,0.00000000,
0.809568,0.4156,1.5233,-0.7860,55.75410016,48.74004864,0.00000000,
0.817801,0.4156,1.5233,-0.7860,55.75410016,48.74004864,0.00000000,
0.827757,0.4156,1.5233,-0.7860,55.75410016,48.74004864,0.00000000,
0.828120,0.4156,1.5233,-0.7860,55.75410016,48.74004864,0.00000000,
0.838405,0.4156,1.5233,-0.7860,55.75410016,48.74004864,0.00000000,
0.848399,0.4156,1.5233,-0.7860,55.75410016,48.74004864,0.00000000,
0.848801,0.4156,1.5233,-0.7860,55.75410016,48.74004864,0.00000000,
0.849074,0.5320,1.2296,1.0034,55.75410016,48.74004864,0.00000000,
0.857848,0.5320,1.2296,1.0034,55.75410016,48.74004864,0.00000000,
0.865900,0.5320,1.2296,1.0034,55.75410016,48.74004864,0.00000000,
0.866347,0.5320,1.2296,1.0034,55.75410016,48.74004864,0.00000000,
0.876258,0.5320,1.2296,1.0034,55.75410016,48.74004864,0.00000000,
0.885906,0.5320,1.2296,1.0034,55.75410016,48.74004864,0.00000000,
0.886321,0.5320,1.2296,1.0034,55.75410016,48.74004864,0.00000000,
0.886633,-0.8168,2.8092,-1.4516,55.75410016,48.74004864,0.00000000,
0.895516,-0.8168,2.8092,-1.4516,55.75410016,48.74004864,0.00000000,
0.905776,-0.8168,2.8092,-1.4516,55.75410016,48.74004864,0.00000000,
0.906196,-0.8168,2.8092,-1.4516,55.75410016,48.74004864,0.00000000,
0.915178,-0.8168,2.8092,-1.4516,55.75410016,48.74004864,0.00000000,
0.925168,-0.8168,2.8092,-1.4516,55.75410016,48.74004864,0.00000000,
0.925558,-0.8168,2.8092,-1.4516,55.75410016,48.74004864,0.00000000,
0.925823,-0.0666,1.6304,0.6149,55.75410016,48.74004864,0.00000000,
0.934578,-0.0666,1.6304,0.6149,55.75410016,48.74004864,0.00000000,
0.943313,-0.0666,1.6304,0.6149,55.75410016,48.74004864,0.00000000,
0.943944,-0.0666,1.6304,0.6149,55.75410016,48.74004864,0.00000000,
0.952657,-0.0666,1.6304,0.6149,55.75410016,48.74004864,0.00000000,
0.962738,-0.0666,1.6304,0.6149,55.75410016,48.74004864,0.00000000,
0.963124,-0.0666,1.6304,0.6149,55.75410016,48.74004864,0.00000000,
0.963445,-0.3282,1.3263,1.9087,55.75410016,48.74004864,0.00000000,
0.972034,-0.3282,1.3263,1.9087,55.75410016,48.74004864,0.00000000,
0.981519,-0.3282,1.3263,1.9087,55.75410016,48.74004864,0.00000000,
0.981851,-0.3282,1.3263,1.9087,55.75410016,48.74004864,0.00000000,
0.991908,-0.3282,1.3263,1.9087,55.75410016,48.74004864,0.00000000,
1.002014,-0.3282,1.3263,1.9087,55.75410016,48.74004864,0.00000000,
1.002411,-0.3282,1.3263,1.9087,55.75410016,48.74004864,0.00000000,
1.002681,0.1911,1.6277,0.9930,55.75410016,48.74004864,0.00000000,
1.010949,0.1911,1.6277,0.9930,55.75410016,48.74004864,0.00000000,
1.021378,0.1911,1.6277,0.9930,55.75410016,48.74004864,0.00000000,
1.021761,0.1911,1.6277,0.9930,55.75410016,48.74004864,0.00000000,
1.030753,0.1911,1.6277,0.9930,55.75410016,48.74004864,0.00000000,
1.041087,0.1911,1.6277,0.9930,55.75410016,48.74004864,0.00000000,
1.041507,0.1911,1.6277,0.9930,55.75410016,48.74004864,0.00000000,
1.041770,-0.2164,1.2060,2.6223,55.75410016,48.74004864,0.00000000,
1.048957,-0.2164,1.2060,2.6223,55.75410016,48.74004864,0.00000000,
1.059469,-0.2164,1.2060,2.6223,55.75410016,48.74004864,0.00000000,
1.059953,-0.2164,1.2060,2.6223,55.75410016,48.74004864,0.00000000,
1.069135,-0.2164,1.2060,2.6223,55.75410016,48.74004864,0.00000000,
1.078225,-0.2164,1.2060,2.6223,55.75410016,48.74004864,0.00000000,
1.078705,-0.2164,1.2060,2.6223,55.75410016,48.74004864,0.00000000,
1.079024,1.2868,-0.2096,-1.5277,55.75410016,48.74004864,0.00000000,
1.088178,1.2868,-0.2096,-1.5277,55.75410016,48.74004864,0.00000000,
1.097602,1.2868,-0.2096,-1.5277,55.75410016,48.74004864,0.00000000,
1.097990,1.2868,-0.2096,-1.5277,55.75410016,48.74004864,0.00000000,
1.106866,1.2868,-0.2096,-1.5277,55.75410016,48.74004864,0.00000000,
1.117150,1.2868,-0.2096,-1.5277,55.75410016,48.74004864,0.00000000,
1.117525,1.2868,-0.2096,-1.5277,55.75410016,48.74004864,0.00000000,
1.117782,-3.6999,-1.3944,1.7354,55.75410016,48.74004864,0.00000000,
1.125844,-3.6999,-1.3944,1.7354,55.75410016,48.74004864,0.00000000,
1.137234,-3.6999,-1.3944,1.7354,55.75410016,48.74004864,0.00000000,
1.137693,-3.6999,-1.3944,1.7354,55.75410016,48.74004864,0.00000000,
1.145530,-3.6999,-1.3944,1.7354,55.75410016,48.74004864,0.00000000,
1.155605,-3.6999,-1.3944,1.7354,55.75410016,48.74004864,0.00000000,
1.155992,-3.6999,-1.3944,1.7354,55.75410016,48.74004864,0.00000000,
1.156245,-0.7791,-1.2785,-1.2078,55.75410016,48.74004864,0.00000000,
1.164569,-0.7791,-1.2785,-1.2078,55.75410016,48.74004864,0.00000000,
1.174930,-0.7791,-1.2785,-1.2078,55.75410016,48.74004864,0.00000000,
1.175303,-0.7791,-1.2785,-1.2078,55.75410016,48.74004864,0.00000000,
1.184332,-0.7791,-1.2785,-1.2078,55.75410016,48.74004864,0.00000000,
1.193793,-0.7791,-1.2785,-1.2078,55.75410016,48.74004864,0.00000000,
1.194256,0.6211,1.5755,-1.9564,55.75410016,48.74004864,0.00000000,
1.194842,0.6211,1.5755,-1.9564,55.75410016,48.74004864,0.00000000,
1.203948,0.6211,1.5755,-1.9564,55.75410016,48.74004864,0.00000000,
1.213263,0.6211,1.5755,-1.9564,55.75410016,48.74004864,0.00000000,
1.213792,0.6211,1.5755,-1.9564,55.75410016,48.74004864,0.00000000,
1.223011,0.6211,1.5755,-1.9564,55.75410016,48.74004864,0.00000000,
1.231626,0.6211,1.5755,-1.9564,55.75410016,48.74004864,0.00000000,
1.232017,0.6211,1.5755,-1.9564,55.75410016,48.74004864,0.00000000,
1.232288,2.1481,1.6303,-1.1008,55.75410016,48.74004864,0.00000000,
1.242473,2.1481,1.6303,-1.1008,55.75410016,48.74004864,0.00000000,
1.252365,2.1481,1.6303,-1.1008,55.75410016,48.74004864,0.00000000,
1.252791,2.1481,1.6303,-1.1008,55.75410016,48.74004864,0.00000000,
1.261086,2.1481,1.6303,-1.1008,55.75410016,48.74004864,0.00000000,
1.271004,2.1481,1.6303,-1.1008,55.75410016,48.74004864,0.00000000,
1.271398,2.1481,1.6303,-1.1008,55.75410016,48.74004864,0.00000000,
1.271664,0.9579,1.1433,3.6269,55.75410016,48.74004864,0.00000000,
1.281077,0.9579,1.1433,3.6269,55.75410016,48.74004864,0.00000000,
1.290195,0.9579,1.1433,3.6269,55.75410016,48.74004864,0.00000000,
1.290614,0.9579,1.1433,3.6269,55.75410016,48.74004864,0.00000000,
1.300256,0.9579,1.1433,3.6269,55.75410016,48.74004864,0.00000000,
1.308849,0.9579,1.1433,3.6269,55.75410016,48.74004864,0.00000000,
1.309260,0.9579,1.1433,3.6269,55.75410016,48.74004864,0.00000000,
1.309574,2.0486,1.7345,-2.5170,55.75410016,48.74004864,0.00000000,
1.318519,2.0486,1.7345,-2.5170,55.75410016,48.74004864,0.00000000,
1.328022,2.0486,1.7345,-2.5170,55.75410016,48.74004864,0.00000000,
1.328461,2.0486,1.7345,-2.5170,55.75410016,48.74004864,0.00000000,
1.338420,2.0486,1.7345,-2.5170,55.75410016,48.74004864,0.00000000,
1.347442,2.0486,1.7345,-2.5170,55.75410016,48.74004864,0.00000000,
1.347876,2.0486,1.7345,-2.5170,55.75410016,48.74004864,0.00000000,
1.348175,0.0737,1.1945,0.1237,55.75410016,48.74004864,0.00000000,
1.357783,0.0737,1.1945,0.1237,55.75410016,48.74004864,0.00000000,
1.368053,0.0737,1.1945,0.1237,55.75410016,48.74004864,0.00000000,
1.368496,0.0737,1.1945,0.1237,55.75410016,48.74004864,0.00000000,
1.376024,0.0737,1.1945,0.1237,55.75410016,48.74004864,0.00000000,
1.386675,0.0737,1.1945,0.1237,55.75410016,48.74004864,0.00000000,
1.387156,0.0737,1.1945,0.1237,55.75410016,48.74004864,0.00000000,
1.387461,-1.0261,2.1654,0.0328,55.75410016,48.74004864,0.00000000,
1.396302,-1.0261,2.1654,0.0328,55.75410016,48.74004864,0.00000000,
1.405847,-1.0261,2.1654,0.0328,55.75410016,48.74004864,0.00000000,
1.406308,-1.0261,2.1654,0.0328,55.75410016,48.74004864,0.00000000,
1.415556,-1.0261,2.1654,0.0328,55.75410016,48.74004864,0.00000000,
1.424887,-1.0261,2.1654,0.0328,55.75410016,48.74004864,0.00000000,
1.425337,-1.0261,2.1654,0.0328,55.75410016,48.74004864,0.00000000,
1.425647,0.6590,1.7123,-0.0859,55.75410016,48.74004864,0.00000000,
1.435208,0.6590,1.7123,-0.0859,55.75410016,48.74004864,0.00000000,
1.443627,0.6590,1.7123,-0.0859,55.75410016,48.74004864,0.00000000,
1.444155,0.6590,1.7123,-0.0859,55.75410016,48.74004864,0.00000000,
1.453678,0.6590,1.7123,-0.0859,55.75410016,48.74004864,0.00000000,
1.463767,0.6590,1.7123,-0.0859,55.75410016,48.74004864,0.00000000,
1.464428,0.6590,1.7123,-0.0859,55.75410016,48.74004864,0.00000000,
1.464955,0.8082,1.4171,0.0241,55.75410016,48.74004864,0.00000000,
1.473175,0.8082,1.4171,0.0241,55.75410016,48.74004864,0.00000000,
1.482279,0.8082,1.4171,0.0241,55.75410016,48.74004864,0.00000000,
1.482974,0.8082,1.4171,0.0241,55.75410016,48.74004864,0.00000000,
1.492577,0.8082,1.4171,0.0241,55.75410016,48.74004864,0.00000000,
1.502026,0.8082,1.4171,0.0241,55.75410016,48.74004864,0.00000000,
1.502736,0.8082,1.4171,0.0241,55.75410016,48.74004864,0.00000000,
1.503273,0.7185,1.0030,-3.0726,55.75410016,48.74004864,0.00000000,
1.511952,0.7185,1.0030,-3.0726,55.75410016,48.74004864,0.00000000,
1.521817,0.7185,1.0030,-3.0726,55.75410016,48.74004864,0.00000000,
1.522546,0.7185,1.0030,-3.0726,55.75410016,48.74004864,0.00000000,
1.531603,0.7185,1.0030,-3.0726,55.75410016,48.74004864,0.00000000,
1.540787,0.7185,1.0030,-3.0726,55.75410016,48.74004864,0.00000000,
1.541493,0.7185,1.0030,-3.0726,55.75410016,48.74004864,0.00000000,
1.542016,1.5988,1.1899,-4.6717,55.75410016,48.74004864,0.00000000,
1.550516,1.5988,1.1899,-4.6717,55.75410016,48.74004864,0.00000000,
1.560925,1.5988,1.1899,-4.6717,55.75410016,48.74004864,0.00000000,
1.561611,1.5988,1.1899,-4.6717,55.75410016,48.74004864,0.00000000,
1.569600,1.5988,1.1899,-4.6717,55.75410016,48.74004864,0.00000000,
1.578706,1.5988,1.1899,-4.6717,55.75410016,48.74004864,0.00000000,
1.579682,1.5988,1.1899,-4.6717,55.75410016,48.74004864,0.00000000,
1.580580,4.4651,-0.4996,-0.6510,55.75410016,48.74004864,0.00000000,
1.588742,4.4651,-0.4996,-0.6510,55.75410016,48.74004864,0.00000000,
1.597535,4.4651,-0.4996,-0.6510,55.75410016,48.74004864,0.00000000,
1.598178,4.4651,-0.4996,-0.6510,55.75410016,48.74004864,0.00000000,
1.608263,4.4651,-0.4996,-0.6510,55.75410016,48.74004864,0.00000000,
1.617830,4.4651,-0.4996,-0.6510,55.75410016,48.74004864,0.00000000,
1.618548,4.4651,-0.4996,-0.6510,55.75410016,48.74004864,0.00000000,
1.619098,5.7366,-1.9909,3.7079,55.75410016,48.74004864,0.00000000,
1.627499,5.7366,-1.9909,3.7079,55.75410016,48.74004864,0.00000000,
1.637148,5.7366,-1.9909,3.7079,55.75410016,48.74004864,0.00000000,
1.637824,5.7366,-1.9909,3.7079,55.75410016,48.74004864,0.00000000,
1.648816,5.7366,-1.9909,3.7079,55.75410016,48.74004864,0.00000000,
1.656049,5.7366,-1.9909,3.7079,55.75410016,48.74004864,0.00000000,
1.656797,5.7366,-1.9909,3.7079,55.75410016,48.74004864,0.00000000,
1.657358,3.0027,0.0828,0.5524,55.75410016,48.74004864,0.00000000,
1.665795,3.0027,0.0828,0.5524,55.75410016,48.74004864,0.00000000,
1.675534,3.0027,0.0828,0.5524,55.75410016,48.74004864,0.00000000,
1.676250,3.0027,0.0828,0.5524,55.75410016,48.74004864,0.00000000,
1.683920,3.0027,0.0828,0.5524,55.75410016,48.74004864,0.00000000,
1.694274,3.0027,0.0828,0.5524,55.75410016,48.74004864,0.00000000,
1.694828,3.0027,0.0828,0.5524,55.75410016,48.74004864,0.00000000,
1.695279,-1.3820,1.6878,-2.8478,55.75410016,48.74004864,0.00000000,
1.703953,-1.3820,1.6878,-2.8478,55.75410016,48.74004864,0.00000000,
1.714320,-1.3820,1.6878,-2.8478,55.75410016,48.74004864,0.00000000,
1.714912,-1.3820,1.6878,-2.8478,55.75410016,48.74004864,0.00000000,
1.723564,-1.3820,1.6878,-2.8478,55.75410016,48.74004864,0.00000000,
1.733426,-1.3820,1.6878,-2.8478,55.75410016,48.74004864,0.00000000,
1.734110,-1.3820,1.6878,-2.8478,55.75410016,48.74004864,0.00000000,
1.734652,-2.4784,-0.2643,4.0864,55.75410016,48.74004864,0.00000000,
1.742275,-2.4784,-0.2643,4.0864,55.75410016,48.74004864,0.00000000,
1.752469,-2.4784,-0.2643,4.0864,55.75410016,48.74004864,0.00000000,
1.753131,-2.4784,-0.2643,4.0864,55.75410016,48.74004864,0.00000000,
1.762283,-2.4784,-0.2643,4.0864,55.75410016,48.74004864,0.00000000,
1.771726,-2.4784,-0.2643,4.0864,55.75410016,48.74004864,0.00000000,
1.772374,-3.6690,0.6116,-2.1909,55.75410016,48.74004864,0.00000000,
1.773244,-3.6690,0.6116,-2.1909,55.75410016,48.74004864,0.00000000,
1.781405,-3.6690,0.6116,-2.1909,55.75410016,48.74004864,0.00000000,
1.791151,-3.6690,0.6116,-2.1909,55.75410016,48.74004864,0.00000000,
1.791856,-3.6690,0.6116,-2.1909,55.75410016,48.74004864,0.00000000,
1.801829,-3.6690,0.6116,-2.1909,55.75410016,48.74004864,0.00000000,
1.810990,-3.6690,0.6116,-2.1909,55.75410016,48.74004864,0.00000000,
1.811738,-3.6690,0.6116,-2.1909,55.75410016,48.74004864,0.00000000,
1.812561,-1.3059,-0.5053,1.8959,55.75410016,48.74004864,0.00000000,
1.819820,-1.3059,-0.5053,1.8959,55.75410016,48.74004864,0.00000000,
1.828990,-1.3059,-0.5053,1.8959,55.75410016,48.74004864,0.00000000,
1.829634,-1.3059,-0.5053,1.8959,55.75410016,48.74004864,0.00000000,
1.838610,-1.3059,-0.5053,1.8959,55.75410016,48.74004864,0.00000000,
1.848479,-1.3059,-0.5053,1.8959,55.75410016,48.74004864,0.00000000,
1.849135,-4.9326,0.5245,5.8583,55.75410016,48.74004864,0.00000000,
1.850016,-4.9326,0.5245,5.8583,55.75410016,48.74004864,0.00000000,
1.857528,-4.9326,0.5245,5.8583,55.75410016,48.74004864,0.00000000,
1.867940,-4.9326,0.5245,5.8583,55.75410016,48.74004864,0.00000000,
1.868621,-4.9326,0.5245,5.8583,55.75410016,48.74004864,0.00000000,
1.877280,-4.9326,0.5245,5.8583,55.75410016,48.74004864,0.00000000,
1.887036,-4.9326,0.5245,5.8583,55.75410016,48.74004864,0.00000000,
1.887720,-4.9326,0.5245,5.8583,55.75410016,48.74004864,0.00000000,
1.888246,-1.7936,0.3175,-6.8153,55.75410016,48.74004864,0.00000000,
1.896891,-1.7936,0.3175,-6.8153,55.75410016,48.74004864,0.00000000,
1.906326,-1.7936,0.3175,-6.8153,55.75410016,48.74004864,0.00000000,
1.907047,-1.7936,0.3175,-6.8153,55.75410016,48.74004864,0.00000000,
1.915743,-1.7936,0.3175,-6.8153,55.75410016,48.74004864,0.00000000,
1.926335,-1.7936,0.3175,-6.8153,55.75410016,48.74004864,0.00000000,
1.927209,1.6442,-1.5307,2.6047,55.75410016,48.74004864,0.00000000,
1.928212,1.6442,-1.5307,2.6047,55.75410016,48.74004864,0.00000000,
1.934794,1.6442,-1.5307,2.6047,55.75410016,48.74004864,0.00000000,
1.944009,1.6442,-1.5307,2.6047,55.75410016,48.74004864,0.00000000,
1.944726,1.6442,-1.5307,2.6047,55.75410016,48.74004864,0.00000000,
1.954464,1.6442,-1.5307,2.6047,55.75410016,48.74004864,0.00000000,
1.963997,1.6442,-1.5307,2.6047,55.75410016,48.74004864,0.00000000,
1.964826,1.6442,-1.5307,2.6047,55.75410016,48.74004864,0.00000000,
1.965371,-3.3108,1.0368,4.3809,55.75410016,48.74004864,0.00000000,
1.973784,-3.3108,1.0368,4.3809,55.75410016,48.74004864,0.00000000,
1.983289,-3.3108,1.0368,4.3809,55.75410016,48.74004864,0.00000000,
1.984081,-3.3108,1.0368,4.3809,55.75410016,48.74004864,0.00000000,
1.992221,-3.3108,1.0368,4.3809,55.75410016,48.74004864,0.00000000,
2.002537,-3.3108,1.0368,4.3809,55.75410016,48.74004864,0.00000000,
2.003215,-3.3108,1.0368,4.3809,55.75410016,48.74004864,0.00000000,
2.003874,-2.0207,2.3824,1.9617,55.75410016,48.74004864,0.00000000,
2.012257,-2.0207,2.3824,1.9617,55.75410016,48.74004864,0.00000000,
2.021923,-2.0207,2.3824,1.9617,55.75410016,48.74004864,0.00000000,
2.022655,-2.0207,2.3824,1.9617,55.75410016,48.74004864,0.00000000,
2.031739,-2.0207,2.3824,1.9617,55.75410016,48.74004864,0.00000000,
2.042517,-2.0207,2.3824,1.9617,55.75410016,48.74004864,0.00000000,
2.043247,-2.0207,2.3824,1.9617,55.75410016,48.74004864,0.00000000,
2.043989,3.5411,0.5282,-1.6720,55.75410016,48.74004864,0.00000000,
2.050742,3.5411,0.5282,-1.6720,55.75410016,48.74004864,0.00000000,
2.060238,3.5411,0.5282,-1.6720,55.75410016,48.74004864,0.00000000,
2.060990,3.5411,0.5282,-1.6720,55.75410016,48.74004864,0.00000000,
2.069996,3.5411,0.5282,-1.6720,55.75410016,48.74004864,0.00000000,
2.079483,3.5411,0.5282,-1.6720,55.75410016,48.74004864,0.00000000,
2.080127,3.5411,0.5282,-1.6720,55.75410016,48.74004864,0.00000000,
2.080588,2.1736,2.5553,1.3563,55.75410016,48.74004864,0.00000000,
2.088943,2.1736,2.5553,1.3563,55.75410016,48.74004864,0.00000000,
2.097851,2.1736,2.5553,1.3563,55.75410016,48.74004864,0.00000000,
2.098535,2.1736,2.5553,1.3563,55.75410016,48.74004864,0.00000000,
2.107766,2.1736,2.5553,1.3563,55.75410016,48.74004864,0.00000000,
2.117126,2.1736,2.5553,1.3563,55.75410016,48.74004864,0.00000000,
2.117708,2.1736,2.5553,1.3563,55.75410016,48.74004864,0.00000000,
2.118169,6.1623,3.4198,-5.0894,55.75410016,48.74004864,0.00000000,
2.126543,6.1623,3.4198,-5.0894,55.75410016,48.74004864,0.00000000,
2.136482,6.1623,3.4198,-5.0894,55.75410016,48.74004864,0.00000000,
2.136938,6.1623,3.4198,-5.0894,55.75410016,48.74004864,0.00000000,
2.146442,6.1623,3.4198,-5.0894,55.75410016,48.74004864,0.00000000,
2.156213,6.1623,3.4198,-5.0894,55.75410016,48.74004864,0.00000000,
2.156837,5.2805,2.7467,-5.6907,55.75410016,48.74004864,0.00000000,
2.157689,5.2805,2.7467,-5.6907,55.75410016,48.74004864,0.00000000,
2.165109,5.2805,2.7467,-5.6907,55.75410016,48.74004864,0.00000000,
2.175026,5.2805,2.7467,-5.6907,55.75410016,48.74004864,0.00000000,
2.175614,5.2805,2.7467,-5.6907,55.75410016,48.74004864,0.00000000,
2.185148,5.2805,2.7467,-5.6907,55.75410016,48.74004864,0.00000000,
2.194155,5.2805,2.7467,-5.6907,55.75410016,48.74004864,0.00000000,
2.194867,5.2805,2.7467,-5.6907,55.75410016,48.74004864,0.00000000,
2.195445,-1.8065,4.2906,-2.1090,55.75410016,48.74004864,0.00000000,
2.204824,-1.8065,4.2906,-2.1090,55.75410016,48.74004864,0.00000000,
2.214203,-1.8065,4.2906,-2.1090,55.75410016,48.74004864,0.00000000,
2.214799,-1.8065,4.2906,-2.1090,55.75410016,48.74004864,0.00000000,
2.223310,-1.8065,4.2906,-2.1090,55.75410016,48.74004864,0.00000000,
2.233448,-1.8065,4.2906,-2.1090,55.75410016,48.74004864,0.00000000,
2.234145,-1.8065,4.2906,-2.1090,55.75410016,48.74004864,0.00000000,
2.235049,2.2630,1.3805,-0.8310,55.75410016,48.74004864,0.00000000,
2.242564,2.2630,1.3805,-0.8310,55.75410016,48.74004864,0.00000000,
2.251662,2.2630,1.3805,-0.8310,55.75410016,48.74004864,0.00000000,
2.252033,2.2630,1.3805,-0.8310,55.75410016,48.74004864,0.00000000,
2.261604,2.2630,1.3805,-0.8310,55.75410016,48.74004864,0.00000000,
2.271148,2.2630,1.3805,-0.8310,55.75410016,48.74004864,0.00000000,
2.271455,2.2630,1.3805,-0.8310,55.75410016,48.74004864,0.00000000,
2.271675,6.0712,-3.8686,3.5651,55.75410016,48.74004864,0.00000000,
2.280941,6.0712,-3.8686,3.5651,55.75410016,48.74004864,0.00000000,
2.290663,6.0712,-3.8686,3.5651,55.75410016,48.74004864,0.00000000,
2.291356,6.0712,-3.8686,3.5651,55.75410016,48.74004864,0.00000000,
2.300746,6.0712,-3.8686,3.5651,55.75410016,48.74004864,0.00000000,
2.309741,6.0712,-3.8686,3.5651,55.75410016,48.74004864,0.00000000,
2.310529,6.0712,-3.8686,3.5651,55.75410016,48.74004864,0.00000000,
2.311178,1.5633,-3.4673,3.3239,55.75410016,48.74004864,0.00000000,
2.319890,1.5633,-3.4673,3.3239,55.75410016,48.74004864,0.00000000,
2.329516,1.5633,-3.4673,3.3239,55.75410016,48.74004864,0.00000000,
2.330299,1.5633,-3.4673,3.3239,55.75410016,48.74004864,0.00000000,
2.338976,1.5633,-3.4673,3.3239,55.75410016,48.74004864,0.00000000,
2.348748,1.5633,-3.4673,3.3239,55.75410016,48.74004864,0.00000000,
2.349423,-0.7135,-0.7700,4.1830,55.75410016,48.74004864,0.00000000,
2.350428,-0.7135,-0.7700,4.1830,55.75410016,48.74004864,0.00000000,
2.357745,-0.7135,-0.7700,4.1830,55.75410016,48.74004864,0.00000000,
2.368249,-0.7135,-0.7700,4.1830,55.75410016,48.74004864,0.00000000,
2.368910,-0.7135,-0.7700,4.1830,55.75410016,48.74004864,0.00000000,
2.377557,-0.7135,-0.7700,4.1830,55.75410016,48.74004864,0.00000000,
2.387222,-0.7135,-0.7700,4.1830,55.75410016,48.74004864,0.00000000,
2.387785,-0.7135,-0.7700,4.1830,55.75410016,48.74004864,0.00000000,
2.388211,-1.9280,1.3904,-3.0937,55.75410016,48.74004864,0.00000000,
2.396443,-1.9280,1.3904,-3.0937,55.75410016,48.74004864,0.00000000,
2.407126,-1.9280,1.3904,-3.0937,55.75410016,48.74004864,0.00000000,
2.407812,-1.9280,1.3904,-3.0937,55.75410016,48.74004864,0.00000000,
2.416079,-1.9280,1.3904,-3.0937,55.75410016,48.74004864,0.00000000,
2.425669,-1.9280,1.3904,-3.0937,55.75410016,48.74004864,0.00000000,
2.426368,-1.9280,1.3904,-3.0937,55.75410016,48.74004864,0.00000000,
2.426989,-0.8323,0.3226,-3.7108,55.75410016,48.74004864,0.00000000,
2.435106,-0.8323,0.3226,-3.7108,55.75410016,48.74004864,0.00000000,
2.444750,-0.8323,0.3226,-3.7108,55.75410016,48.74004864,0.00000000,
2.445505,-0.8323,0.3226,-3.7108,55.75410016,48.74004864,0.00000000,
2.454501,-0.8323,0.3226,-3.7108,55.75410016,48.74004864,0.00000000,
2.464587,-0.8323,0.3226,-3.7108,55.75410016,48.74004864,0.00000000,
2.465314,-0.8323,0.3226,-3.7108,55.75410016,48.74004864,0.00000000,
2.465828,-7.5882,2.2022,-0.7138,55.75410016,48.74004864,0.00000000,
2.474025,-7.5882,2.2022,-0.7138,55.75410016,48.74004864,0.00000000,
2.484112,-7.5882,2.2022,-0.7138,55.75410016,48.74004864,0.00000000,
2.484776,-7.5882,2.2022,-0.7138,55.75410016,48.74004864,0.00000000,
2.493766,-7.5882,2.2022,-0.7138,55.75410016,48.74004864,0.00000000,
2.502747,-7.5882,2.2022,-0.7138,55.75410016,48.74004864,0.00000000,
2.503466,-7.5882,2.2022,-0.7138,55.75410016,48.74004864,0.00000000,
2.504063,-5.1232,-2.5039,1.4238,55.75410016,48.74004864,0.00000000,
2.513154,-5.1232,-2.5039,1.4238,55.75410016,48.74004864,0.00000000,
2.522425,-5.1232,-2.5039,1.4238,55.75410016,48.74004864,0.00000000,
2.523077,-5.1232,-2.5039,1.4238,55.75410016,48.74004864,0.00000000,
2.532448,-5.1232,-2.5039,1.4238,55.75410016,48.74004864,0.00000000,
2.541279,-5.1232,-2.5039,1.4238,55.75410016,48.74004864,0.00000000,
2.542046,-5.1232,-2.5039,1.4238,55.75410016,48.74004864,0.00000000,
2.542649,-5.2413,-3.5398,4.2290,55.75410016,48.74004864,0.00000000,
2.551168,-5.2413,-3.5398,4.2290,55.75410016,48.74004864,0.00000000,
2.560932,-5.2413,-3.5398,4.2290,55.75410016,48.74004864,0.00000000,
2.561685,-5.2413,-3.5398,4.2290,55.75410016,48.74004864,0.00000000,
2.570712,-5.2413,-3.5398,4.2290,55.75410016,48.74004864,0.00000000,
2.580158,-5.2413,-3.5398,4.2290,55.75410016,48.74004864,0.00000000,
2.580909,-5.2413,-3.5398,4.2290,55.75410016,48.74004864,0.00000000,
2.581466,1.1005,-2.9160,-0.0947,55.75410016,48.74004864,0.00000000,
2.589518,1.1005,-2.9160,-0.0947,55.75410016,48.74004864,0.00000000,
2.599955,1.1005,-2.9160,-0.0947,55.75410016,48.74004864,0.00000000,
2.600792,1.1005,-2.9160,-0.0947,55.75410016,48.74004864,0.00000000,
2.608205,1.1005,-2.9160,-0.0947,55.75410016,48.74004864,0.00000000,
2.618926,1.1005,-2.9160,-0.0947,55.75410016,48.74004864,0.00000000,
2.619629,4.2364,1.7989,1.2474,55.75410016,48.74004864,0.00000000,
2.620619,4.2364,1.7989,1.2474,55.75410016,48.74004864,0.00000000,
2.628215,4.2364,1.7989,1.2474,55.75410016,48.74004864,0.00000000,
2.637753,4.2364,1.7989,1.2474,55.75410016,48.74004864,0.00000000,
2.638399,4.2364,1.7989,1.2474,55.75410016,48.74004864,0.00000000,
2.647401,4.2364,1.7989,1.2474,55.75410016,48.74004864,0.00000000,
2.656074,4.2364,1.7989,1.2474,55.75410016,48.74004864,0.00000000,
2.656770,4.2364,1.7989,1.2474,55.75410016,48.74004864,0.00000000,
2.657304,2.6694,4.1972,3.1273,55.75410016,48.74004864,0.00000000,
2.666474,2.6694,4.1972,3.1273,55.75410016,48.74004864,0.00000000,
2.675333,2.6694,4.1972,3.1273,55.75410016,48.74004864,0.00000000,
2.676024,2.6694,4.1972,3.1273,55.75410016,48.74004864,0.00000000,
2.685941,2.6694,4.1972,3.1273,55.75410016,48.74004864,0.00000000,
2.695670,2.6694,4.1972,3.1273,55.75410016,48.74004864,0.00000000,
2.696423,2.6694,4.1972,3.1273,55.75410016,48.74004864,0.00000000,
2.697052,6.6934,2.0895,-5.0890,55.75410016,48.74004864,0.00000000,
2.705741,6.6934,2.0895,-5.0890,55.75410016,48.74004864,0.00000000,
2.715673,6.6934,2.0895,-5.0890,55.75410016,48.74004864,0.00000000,
2.716338,6.6934,2.0895,-5.0890,55.75410016,48.74004864,0.00000000,
2.723586,6.6934,2.0895,-5.0890,55.75410016,48.74004864,0.00000000,
2.733852,6.6934,2.0895,-5.0890,55.75410016,48.74004864,0.00000000,
2.734580,6.6934,2.0895,-5.0890,55.75410016,48.74004864,0.00000000,
2.735179,8.5699,1.3902,6.1608,55.75410016,48.74004864,0.00000000,
2.742699,8.5699,1.3902,6.1608,55.75410016,48.74004864,0.00000000,
2.752943,8.5699,1.3902,6.1608,55.75410016,48.74004864,0.00000000,
2.753681,8.5699,1.3902,6.1608,55.75410016,48.74004864,0.00000000,
2.763046,8.5699,1.3902,6.1608,55.75410016,48.74004864,0.00000000,
2.772303,8.5699,1.3902,6.1608,55.75410016,48.74004864,0.00000000,
2.773022,8.5699,1.3902,6.1608,55.75410016,48.74004864,0.00000000,
2.773694,0.9171,3.3723,-2.9690,55.75410016,48.74004864,0.00000000,
2.781195,0.9171,3.3723,-2.9690,55.75410016,48.74004864,0.00000000,
2.790985,0.9171,3.3723,-2.9690,55.75410016,48.74004864,0.00000000,
2.791508,0.9171,3.3723,-2.9690,55.75410016,48.74004864,0.00000000,
2.801655,0.9171,3.3723,-2.9690,55.75410016,48.74004864,0.00000000,
2.810617,0.9171,3.3723,-2.9690,55.75410016,48.74004864,0.00000000,
2.811510,0.9171,3.3723,-2.9690,55.75410016,48.74004864,0.00000000,
2.812230,1.6966,1.4080,-4.6180,55.75410016,48.74004864,0.00000000,
2.820413,1.6966,1.4080,-4.6180,55.75410016,48.74004864,0.00000000,
2.829474,1.6966,1.4080,-4.6180,55.75410016,48.74004864,0.00000000,
2.830103,1.6966,1.4080,-4.6180,55.75410016,48.74004864,0.00000000,
2.839048,1.6966,1.4080,-4.6180,55.75410016,48.74004864,0.00000000,
2.849562,1.6966,1.4080,-4.6180,55.75410016,48.74004864,0.00000000,
2.850161,1.6966,1.4080,-4.6180,55.75410016,48.74004864,0.00000000,
2.850579,2.8458,-2.7265,4.0395,55.75410016,48.74004864,0.00000000,
2.858665,2.8458,-2.7265,4.0395,55.75410016,48.74004864,0.00000000,
2.868446,2.8458,-2.7265,4.0395,55.75410016,48.74004864,0.00000000,
2.868951,2.8458,-2.7265,4.0395,55.75410016,48.74004864,0.00000000,
2.878734,2.8458,-2.7265,4.0395,55.75410016,48.74004864,0.00000000,
2.888112,2.8458,-2.7265,4.0395,55.75410016,48.74004864,0.00000000,
2.888740,2.8458,-2.7265,4.0395,55.75410016,48.74004864,0.00000000,
2.889191,0.3884,-1.6715,1.6036,55.75410016,48.74004864,0.00000000,
2.897433,0.3884,-1.6715,1.6036,55.75410016,48.74004864,0.00000000,
2.906539,0.3884,-1.6715,1.6036,55.75410016,48.74004864,0.00000000,
2.907325,0.3884,-1.6715,1.6036,55.75410016,48.74004864,0.00000000,
2.917244,0.3884,-1.6715,1.6036,55.75410016,48.74004864,0.00000000,
2.925980,0.3884,-1.6715,1.6036,55.75410016,48.74004864,0.00000000,
2.926648,0.3884,-1.6715,1.6036,55.75410016,48.74004864,0.00000000,
2.927205,-0.5582,-3.8328,4.2646,55.75410016,48.74004864,0.00000000,
2.935152,-0.5582,-3.8328,4.2646,55.75410016,48.74004864,0.00000000,
2.946039,-0.5582,-3.8328,4.2646,55.75410016,48.74004864,0.00000000,
2.946814,-0.5582,-3.8328,4.2646,55.75410016,48.74004864,0.00000000,
2.955448,-0.5582,-3.8328,4.2646,55.75410016,48.74004864,0.00000000,
2.965215,-0.5582,-3.8328,4.2646,55.75410016,48.74004864,0.00000000,
2.965970,-0.5582,-3.8328,4.2646,55.75410016,48.74004864,0.00000000,
2.966527,-0.5718,-2.6843,6.5804,55.75410016,48.74004864,0.00000000,
2.973899,-0.5718,-2.6843,6.5804,55.75410016,48.74004864,0.00000000,
2.984316,-0.5718,-2.6843,6.5804,55.75410016,48.74004864,0.00000000,
2.985046,-0.5718,-2.6843,6.5804,55.75410016,48.74004864,0.00000000,
2.993864,-0.5718,-2.6843,6.5804,55.75410016,48.74004864,0.00000000,
3.003598,-0.5718,-2.6843,6.5804,55.75410016,48.74004864,0.00000000,
3.004315,-2.6858,0.7868,-3.1049,55.75410016,48.74004864,0.00000000,
3.005270,-2.6858,0.7868,-3.1049,55.75410016,48.74004864,0.00000000,
3.012950,-2.6858,0.7868,-3.1049,55.75410016,48.74004864,0.00000000,
3.022153,-2.6858,0.7868,-3.1049,55.75410016,48.74004864,0.00000000,
3.022839,-2.6858,0.7868,-3.1049,55.75410016,48.74004864,0.00000000,
3.032278,-2.6858,0.7868,-3.1049,55.75410016,48.74004864,0.00000000,
3.042565,-2.6858,0.7868,-3.1049,55.75410016,48.74004864,0.00000000,
3.043353,-2.6858,0.7868,-3.1049,55.75410016,48.74004864,0.00000000,
3.044102,-2.8751,-0.3690,-3.8114,55.75410016,48.74004864,0.00000000,
3.051610,-2.8751,-0.3690,-3.8114,55.75410016,48.74004864,0.00000000,
3.061471,-2.8751,-0.3690,-3.8114,55.75410016,48.74004864,0.00000000,
3.062375,-2.8751,-0.3690,-3.8114,55.75410016,48.74004864,0.00000000,
3.070669,-2.8751,-0.3690,-3.8114,55.75410016,48.74004864,0.00000000,
3.081813,-2.8751,-0.3690,-3.8114,55.75410016,48.74004864,0.00000000,
3.082539,-2.8751,-0.3690,-3.8114,55.75410016,48.74004864,0.00000000,
3.083088,-6.2407,-0.5226,-5.5070,55.75410016,48.74004864,0.00000000,
3.089144,-6.2407,-0.5226,-5.5070,55.75410016,48.74004864,0.00000000,
3.099714,-6.2407,-0.5226,-5.5070,55.75410016,48.74004864,0.00000000,
3.100476,-6.2407,-0.5226,-5.5070,55.75410016,48.74004864,0.00000000,
3.108326,-6.2407,-0.5226,-5.5070,55.75410016,48.74004864,0.00000000,
3.118985,-6.2407,-0.5226,-5.5070,55.75410016,48.74004864,0.00000000,
3.119554,-6.2407,-0.5226,-5.5070,55.75410016,48.74004864,0.00000000,
3.119988,-5.4052,-2.8318,-5.3445,55.75410016,48.74004864,0.00000000,
3.127739,-5.4052,-2.8318,-5.3445,55.75410016,48.74004864,0.00000000,
3.138246,-5.4052,-2.8318,-5.3445,55.75410016,48.74004864,0.00000000,
3.138796,-5.4052,-2.8318,-5.3445,55.75410016,48.74004864,0.00000000,
3.147396,-5.4052,-2.8318,-5.3445,55.75410016,48.74004864,0.00000000,
3.156842,-5.4052,-2.8318,-5.3445,55.75410016,48.74004864,0.00000000,
3.157496,-5.4052,-2.8318,-5.3445,55.75410016,48.74004864,0.00000000,
3.158039,-3.0735,-2.7130,0.8855,55.75410016,48.74004864,0.00000000,
3.167087,-3.0735,-2.7130,0.8855,55.75410016,48.74004864,0.00000000,
3.176506,-3.0735,-2.7130,0.8855,55.75410016,48.74004864,0.00000000,
3.177212,-3.0735,-2.7130,0.8855,55.75410016,48.74004864,0.00000000,
3.186001,-3.0735,-2.7130,0.8855,55.75410016,48.74004864,0.00000000,
3.195544,-3.0735,-2.7130,0.8855,55.75410016,48.74004864,0.00000000,
3.196247,-3.0735,-2.7130,0.8855,55.75410016,48.74004864,0.00000000,
3.196823,-5.9429,-0.7558,3.8668,55.75410016,48.74004864,0.00000000,
3.205389,-5.9429,-0.7558,3.8668,55.75410016,48.74004864,0.00000000,
3.214977,-5.9429,-0.7558,3.8668,55.75410016,48.74004864,0.00000000,
3.215643,-5.9429,-0.7558,3.8668,55.75410016,48.74004864,0.00000000,
3.223824,-5.9429,-0.7558,3.8668,55.75410016,48.74004864,0.00000000,
3.234308,-5.9429,-0.7558,3.8668,55.75410016,48.74004864,0.00000000,
3.234946,-5.9429,-0.7558,3.8668,55.75410016,48.74004864,0.00000000,
3.235486,1.0018,-1.4942,5.1810,55.75410016,48.74004864,0.00000000,
3.244142,1.0018,-1.4942,5.1810,55.75410016,48.74004864,0.00000000,
3.253596,1.0018,-1.4942,5.1810,55.75410016,48.74004864,0.00000000,
3.254280,1.0018,-1.4942,5.1810,55.75410016,48.74004864,0.00000000,
3.262906,1.0018,-1.4942,5.1810,55.75410016,48.74004864,0.00000000,
3.273605,2.3838,0.9390,8.0265,55.75410016,48.74004864,0.00000000,
3.274815,2.3838,0.9390,8.0265,55.75410016,48.74004864,0.00000000,
3.275412,2.3838,0.9390,8.0265,55.75410016,48.74004864,0.00000000,
3.282465,2.3838,0.9390,8.0265,55.75410016,48.74004864,0.00000000,
3.291813,2.3838,0.9390,8.0265,55.75410016,48.74004864,0.00000000,
3.292546,2.3838,0.9390,8.0265,55.75410016,48.74004864,0.00000000,
3.301818,2.3838,0.9390,8.0265,55.75410016,48.74004864,0.00000000,
3.311741,2.3838,0.9390,8.0265,55.75410016,48.74004864,0.00000000,
3.312463,2.3838,0.9390,8.0265,55.75410016,48.74004864,0.00000000,
3.313026,5.1029,1.4980,-0.9545,55.75410016,48.74004864,0.00000000,
3.321567,5.1029,1.4980,-0.9545,55.75410016,48.74004864,0.00000000,
3.330463,5.1029,1.4980,-0.9545,55.75410016,48.74004864,0.00000000,
3.331181,5.1029,1.4980,-0.9545,55.75410016,48.74004864,0.00000000,
3.339470,5.1029,1.4980,-0.9545,55.75410016,48.74004864,0.00000000,
3.349648,5.1029,1.4980,-0.9545,55.75410016,48.74004864,0.00000000,
3.350419,5.1029,1.4980,-0.9545,55.75410016,48.74004864,0.00000000,
3.350981,7.4607,0.0563,-4.2145,55.75410016,48.74004864,0.00000000,
3.358681,7.4607,0.0563,-4.2145,55.75410016,48.74004864,0.00000000,
3.369020,7.4607,0.0563,-4.2145,55.75410016,48.74004864,0.00000000,
3.369726,7.4607,0.0563,-4.2145,55.75410016,48.74004864,0.00000000,
3.378501,7.4607,0.0563,-4.2145,55.75410016,48.74004864,0.00000000,
3.388218,7.4607,0.0563,-4.2145,55.75410016,48.74004864,0.00000000,
3.388931,7.4607,0.0563,-4.2145,55.75410016,48.74004864,0.00000000,
3.389487,6.0189,1.6295,-12.1326,55.75410016,48.74004864,0.00000000,
3.397394,6.0189,1.6295,-12.1326,55.75410016,48.74004864,0.00000000,
3.406911,6.0189,1.6295,-12.1326,55.75410016,48.74004864,0.00000000,
3.408069,6.0189,1.6295,-12.1326,55.75410016,48.74004864,0.00000000,
3.417446,6.0189,1.6295,-12.1326,55.75410016,48.74004864,0.00000000,
3.426466,6.0189,1.6295,-12.1326,55.75410016,48.74004864,0.00000000,
3.427703,6.0189,1.6295,-12.1326,55.75410016,48.74004864,0.00000000,
3.428415,5.4132,-0.7651,-2.0771,55.75410016,48.74004864,0.00000000,
3.437051,5.4132,-0.7651,-2.0771,55.75410016,48.74004864,0.00000000,
3.445058,5.4132,-0.7651,-2.0771,55.75410016,48.74004864,0.00000000,
3.445846,5.4132,-0.7651,-2.0771,55.75410016,48.74004864,0.00000000,
3.454678,5.4132,-0.7651,-2.0771,55.75410016,48.74004864,0.00000000,
3.464704,5.4132,-0.7651,-2.0771,55.75410016,48.74004864,0.00000000,
3.465366,5.4132,-0.7651,-2.0771,55.75410016,48.74004864,0.00000000,
3.465891,5.5668,-2.8203,4.7460,55.75410016,48.74004864,0.00000000,
3.474278,5.5668,-2.8203,4.7460,55.75410016,48.74004864,0.00000000,
3.485058,5.5668,-2.8203,4.7460,55.75410016,48.74004864,0.00000000,
3.485696,5.5668,-2.8203,4.7460,55.75410016,48.74004864,0.00000000,
3.493377,5.5668,-2.8203,4.7460,55.75410016,48.74004864,0.00000000,
3.503483,5.5668,-2.8203,4.7460,55.75410016,48.74004864,0.00000000,
3.504086,5.5668,-2.8203,4.7460,55.75410016,48.74004864,0.00000000,
3.504524,4.2393,-0.5006,-2.6673,55.75410016,48.74004864,0.00000000,
3.512981,4.2393,-0.5006,-2.6673,55.75410016,48.74004864,0.00000000,
3.522096,4.2393,-0.5006,-2.6673,55.75410016,48.74004864,0.00000000,
3.522825,4.2393,-0.5006,-2.6673,55.75410016,48.74004864,0.00000000,
3.532786,4.2393,-0.5006,-2.6673,55.75410016,48.74004864,0.00000000,
3.541314,4.2393,-0.5006,-2.6673,55.75410016,48.74004864,0.00000000,
3.542239,4.2393,-0.5006,-2.6673,55.75410016,48.74004864,0.00000000,
3.542795,1.9706,-4.8072,6.1597,55.75410016,48.74004864,0.00000000,
3.552304,1.9706,-4.8072,6.1597,55.75410016,48.74004864,0.00000000,
3.561845,1.9706,-4.8072,6.1597,55.75410016,48.74004864,0.00000000,
3.562721,1.9706,-4.8072,6.1597,55.75410016,48.74004864,0.00000000,
3.570973,1.9706,-4.8072,6.1597,55.75410016,48.74004864,0.00000000,
3.580805,1.9706,-4.8072,6.1597,55.75410016,48.74004864,0.00000000,
3.581741,1.9706,-4.8072,6.1597,55.75410016,48.74004864,0.00000000,
3.582309,-3.7804,-2.4809,7.0102,55.75410016,48.74004864,0.00000000,
3.589834,-3.7804,-2.4809,7.0102,55.75410016,48.74004864,0.00000000,
3.599954,-3.7804,-2.4809,7.0102,55.75410016,48.74004864,0.00000000,
3.600689,-3.7804,-2.4809,7.0102,55.75410016,48.74004864,0.00000000,
3.608674,-3.7804,-2.4809,7.0102,55.75410016,48.74004864,0.00000000,
3.619377,-2.3498,0.2381,-4.5325,55.75410016,48.74004864,0.00000000,
3.620488,-2.3498,0.2381,-4.5325,55.75410016,48.74004864,0.00000000,
3.621053,-2.3498,0.2381,-4.5325,55.75410016,48.74004864,0.00000000,
3.628955,-2.3498,0.2381,-4.5325,55.75410016,48.74004864,0.00000000,
3.638068,-2.3498,0.2381,-4.5325,55.75410016,48.74004864,0.00000000,
3.638749,-2.3498,0.2381,-4.5325,55.75410016,48.74004864,0.00000000,
3.647685,-2.3498,0.2381,-4.5325,55.75410016,48.74004864,0.00000000,
3.657554,-2.3498,0.2381,-4.5325,55.75410016,48.74004864,0.00000000,
3.658543,-2.3498,0.2381,-4.5325,55.75410016,48.74004864,0.00000000,
3.659169,-1.5489,-1.8548,-8.0436,55.75410016,48.74004864,0.00000000,
3.667829,-1.5489,-1.8548,-8.0436,55.75410016,48.74004864,0.00000000,
3.677168,-1.5489,-1.8548,-8.0436,55.75410016,48.74004864,0.00000000,
3.678121,-1.5489,-1.8548,-8.0436,55.75410016,48.74004864,0.00000000,
3.686797,-1.5489,-1.8548,-8.0436,55.75410016,48.74004864,0.00000000,
3.695948,-8.1922,-1.2371,-0.2446,55.75410016,48.74004864,0.00000000,
3.697332,-8.1922,-1.2371,-0.2446,55.75410016,48.74004864,0.00000000,
3.697879,-8.1922,-1.2371,-0.2446,55.75410016,48.74004864,0.00000000,
3.705130,-8.1922,-1.2371,-0.2446,55.75410016,48.74004864,0.00000000,
3.715637,-8.1922,-1.2371,-0.2446,55.75410016,48.74004864,0.00000000,
3.716348,-8.1922,-1.2371,-0.2446,55.75410016,48.74004864,0.00000000,
3.724768,-8.1922,-1.2371,-0.2446,55.75410016,48.74004864,0.00000000,
3.734636,-8.1922,-1.2371,-0.2446,55.75410016,48.74004864,0.00000000,
3.735338,-8.1922,-1.2371,-0.2446,55.75410016,48.74004864,0.00000000,
3.735867,-6.0070,-3.7313,-1.0509,55.75410016,48.74004864,0.00000000,
3.744181,-6.0070,-3.7313,-1.0509,55.75410016,48.74004864,0.00000000,
3.754119,-6.0070,-3.7313,-1.0509,55.75410016,48.74004864,0.00000000,
3.754853,-6.0070,-3.7313,-1.0509,55.75410016,48.74004864,0.00000000,
3.763612,-6.0070,-3.7313,-1.0509,55.75410016,48.74004864,0.00000000,
3.772517,-6.0070,-3.7313,-1.0509,55.75410016,48.74004864,0.00000000,
3.773555,-6.0070,-3.7313,-1.0509,55.75410016,48.74004864,0.00000000,
3.774208,-0.8192,-4.2273,-1.8226,55.75410016,48.74004864,0.00000000,
3.782312,-0.8192,-4.2273,-1.8226,55.75410016,48.74004864,0.00000000,
3.791723,-0.8192,-4.2273,-1.8226,55.75410016,48.74004864,0.00000000,
3.792713,-0.8192,-4.2273,-1.8226,55.75410016,48.74004864,0.00000000,
3.802875,-0.8192,-4.2273,-1.8226,55.75410016,48.74004864,0.00000000,
3.811881,-0.8192,-4.2273,-1.8226,55.75410016,48.74004864,0.00000000,
3.812784,-0.8192,-4.2273,-1.8226,55.75410016,48.74004864,0.00000000,
3.813320,-1.8240,-3.2917,11.8304,55.75410016,48.74004864,0.00000000,
3.820858,-1.8240,-3.2917,11.8304,55.75410016,48.74004864,0.00000000,
3.831164,-1.8240,-3.2917,11.8304,55.75410016,48.74004864,0.00000000,
3.831823,-1.8240,-3.2917,11.8304,55.75410016,48.74004864,0.00000000,
3.839896,-1.8240,-3.2917,11.8304,55.75410016,48.74004864,0.00000000,
3.850328,-1.8240,-3.2917,11.8304,55.75410016,48.74004864,0.00000000,
3.850974,5.0570,3.4360,1.8169,55.75410016,48.74004864,0.00000000,
3.851763,5.0570,3.4360,1.8169,55.75410016,48.74004864,0.00000000,
3.860409,5.0570,3.4360,1.8169,55.75410016,48.74004864,0.00000000,
3.869290,5.0570,3.4360,1.8169,55.75410016,48.74004864,0.00000000,
3.869940,5.0570,3.4360,1.8169,55.75410016,48.74004864,0.00000000,
3.879017,5.0570,3.4360,1.8169,55.75410016,48.74004864,0.00000000,
3.888294,5.0570,3.4360,1.8169,55.75410016,48.74004864,0.00000000,
3.889357,5.0570,3.4360,1.8169,55.75410016,48.74004864,0.00000000,
3.889989,0.4982,6.5725,-0.8828,55.75410016,48.74004864,0.00000000,
3.898319,0.4982,6.5725,-0.8828,55.75410016,48.74004864,0.00000000,
3.907331,0.4982,6.5725,-0.8828,55.75410016,48.74004864,0.00000000,
3.908301,0.4982,6.5725,-0.8828,55.75410016,48.74004864,0.00000000,
3.917478,0.4982,6.5725,-0.8828,55.75410016,48.74004864,0.00000000,
3.926928,0.4982,6.5725,-0.8828,55.75410016,48.74004864,0.00000000,
3.927822,0.4982,6.5725,-0.8828,55.75410016,48.74004864,0.00000000,
3.928359,1.7803,3.1907,3.7532,55.75410016,48.74004864,0.00000000,
3.936808,1.7803,3.1907,3.7532,55.75410016,48.74004864,0.00000000,
3.947960,1.7803,3.1907,3.7532,55.75410016,48.74004864,0.00000000,
3.948879,1.7803,3.1907,3.7532,55.75410016,48.74004864,0.00000000,
3.955125,1.7803,3.1907,3.7532,55.75410016,48.74004864,0.00000000,
3.965726,1.7803,3.1907,3.7532,55.75410016,48.74004864,0.00000000,
3.966454,1.7803,3.1907,3.7532,55.75410016,48.74004864,0.00000000,
3.967080,6.7726,0.0681,2.7690,55.75410016,48.74004864,0.00000000,
3.975120,6.7726,0.0681,2.7690,55.75410016,48.74004864,0.00000000,
3.984646,6.7726,0.0681,2.7690,55.75410016,48.74004864,0.00000000,
3.985342,6.7726,0.0681,2.7690,55.75410016,48.74004864,0.00000000,
3.994820,6.7726,0.0681,2.7690,55.75410016,48.74004864,0.00000000,
4.004742,6.7726,0.0681,2.7690,55.75410016,48.74004864,0.00000000,
4.005740,2.7505,1.6649,-9.4943,55.75410016,48.74004864,0.00000000,
4.006892,2.7505,1.6649,-9.4943,55.75410016,48.74004864,0.00000000,
4.013850,2.7505,1.6649,-9.4943,55.75410016,48.74004864,0.00000000,
4.022476,2.7505,1.6649,-9.4943,55.75410016,48.74004864,0.00000000,
4.023502,2.7505,1.6649,-9.4943,55.75410016,48.74004864,0.00000000,
4.032312,2.7505,1.6649,-9.4943,55.75410016,48.74004864,0.00000000,
4.043108,2.7505,1.6649,-9.4943,55.75410016,48.74004864,0.00000000,
4.043997,2.7505,1.6649,-9.4943,55.75410016,48.74004864,0.00000000,
4.044549,4.4831,-0.8330,-2.7564,55.75410016,48.74004864,0.00000000,
4.052045,4.4831,-0.8330,-2.7564,55.75410016,48.74004864,0.00000000,
4.062291,4.4831,-0.8330,-2.7564,55.75410016,48.74004864,0.00000000,
4.063147,4.4831,-0.8330,-2.7564,55.75410016,48.74004864,0.00000000,
4.070861,4.4831,-0.8330,-2.7564,55.75410016,48.74004864,0.00000000,
4.081536,4.4831,-0.8330,-2.7564,55.75410016,48.74004864,0.00000000,
4.082179,4.4831,-0.8330,-2.7564,55.75410016,48.74004864,0.00000000,
4.082700,0.3164,-1.1090,1.7719,55.75410016,48.74004864,0.00000000,
4.090100,0.3164,-1.1090,1.7719,55.75410016,48.74004864,0.00000000,
4.100037,0.3164,-1.1090,1.7719,55.75410016,48.74004864,0.00000000,
4.100769,0.3164,-1.1090,1.7719,55.75410016,48.74004864,0.00000000,
4.110813,0.3164,-1.1090,1.7719,55.75410016,48.74004864,0.00000000,
4.118887,0.3164,-1.1090,1.7719,55.75410016,48.74004864,0.00000000,
4.119595,0.3164,-1.1090,1.7719,55.75410016,48.74004864,0.00000000,
4.120170,1.0639,-1.8309,0.4736,55.75410016,48.74004864,0.00000000,
4.129247,1.0639,-1.8309,0.4736,55.75410016,48.74004864,0.00000000,
4.137949,1.0639,-1.8309,0.4736,55.75410016,48.74004864,0.00000000,
4.138926,1.0639,-1.8309,0.4736,55.75410016,48.74004864,0.00000000,
4.148221,1.0639,-1.8309,0.4736,55.75410016,48.74004864,0.00000000,
4.157350,1.0639,-1.8309,0.4736,55.75410016,48.74004864,0.00000000,
4.158298,1.0639,-1.8309,0.4736,55.75410016,48.74004864,0.00000000,
4.159258,-3.8980,-3.8049,8.4885,55.75410016,48.74004864,0.00000000,
4.167621,-3.8980,-3.8049,8.4885,55.75410016,48.74004864,0.00000000,
4.178282,-3.8980,-3.8049,8.4885,55.75410016,48.74004864,0.00000000,
4.179215,-3.8980,-3.8049,8.4885,55.75410016,48.74004864,0.00000000,
4.186366,-3.8980,-3.8049,8.4885,55.75410016,48.74004864,0.00000000,
4.196684,-3.8980,-3.8049,8.4885,55.75410016,48.74004864,0.00000000,
4.197661,-3.7374,-0.6338,0.0673,55.75410016,48.74004864,0.00000000,
4.198627,-3.7374,-0.6338,0.0673,55.75410016,48.74004864,0.00000000,
4.205708,-3.7374,-0.6338,0.0673,55.75410016,48.74004864,0.00000000,
4.215711,-3.7374,-0.6338,0.0673,55.75410016,48.74004864,0.00000000,
4.216396,-3.7374,-0.6338,0.0673,55.75410016,48.74004864,0.00000000,
4.226021,-3.7374,-0.6338,0.0673,55.75410016,48.74004864,0.00000000,
4.234681,-3.7374,-0.6338,0.0673,55.75410016,48.74004864,0.00000000,
4.235373,-0.1756,-1.8058,-8.3166,55.75410016,48.74004864,0.00000000,
4.236357,-0.1756,-1.8058,-8.3166,55.75410016,48.74004864,0.00000000,
4.244056,-0.1756,-1.8058,-8.3166,55.75410016,48.74004864,0.00000000,
4.255997,-0.1756,-1.8058,-8.3166,55.75410016,48.74004864,0.00000000,
4.256946,-0.1756,-1.8058,-8.3166,55.75410016,48.74004864,0.00000000,
4.263977,-0.1756,-1.8058,-8.3166,55.75410016,48.74004864,0.00000000,
4.272794,-0.1756,-1.8058,-8.3166,55.75410016,48.74004864,0.00000000,
4.273819,-0.1756,-1.8058,-8.3166,55.75410016,48.74004864,0.00000000,
4.274316,3.1166,-3.9642,0.8101,55.75410016,48.74004864,0.00000000,
4.282752,3.1166,-3.9642,0.8101,55.75410016,48.74004864,0.00000000,
4.292311,3.1166,-3.9642,0.8101,55.75410016,48.74004864,0.00000000,
4.293215,3.1166,-3.9642,0.8101,55.75410016,48.74004864,0.00000000,
4.301553,3.1166,-3.9642,0.8101,55.75410016,48.74004864,0.00000000,
4.312119,3.1166,-3.9642,0.8101,55.75410016,48.74004864,0.00000000,
4.313133,3.1166,-3.9642,0.8101,55.75410016,48.74004864,0.00000000,
4.313721,-8.1538,0.6840,-5.0091,55.75410016,48.74004864,0.00000000,
4.321948,-8.1538,0.6840,-5.0091,55.75410016,48.74004864,0.00000000,
4.330869,-8.1538,0.6840,-5.0091,55.75410016,48.74004864,0.00000000,
4.331497,-8.1538,0.6840,-5.0091,55.75410016,48.74004864,0.00000000,
4.341443,-8.1538,0.6840,-5.0091,55.75410016,48.74004864,0.00000000,
4.350038,-8.1538,0.6840,-5.0091,55.75410016,48.74004864,0.00000000,
4.350799,-3.6800,-3.5561,0.3445,55.75410016,48.74004864,0.00000000,
4.351740,-3.6800,-3.5561,0.3445,55.75410016,48.74004864,0.00000000,
4.359284,-3.6800,-3.5561,0.3445,55.75410016,48.74004864,0.00000000,
4.371174,-3.6800,-3.5561,0.3445,55.75410016,48.74004864,0.00000000,
4.371964,-3.6800,-3.5561,0.3445,55.75410016,48.74004864,0.00000000,
4.378675,-3.6800,-3.5561,0.3445,55.75410016,48.74004864,0.00000000,
4.388867,-3.6800,-3.5561,0.3445,55.75410016,48.74004864,0.00000000,
4.389920,-3.6800,-3.5561,0.3445,55.75410016,48.74004864,0.00000000,
4.390538,-5.6040,-1.3558,-0.9859,55.75410016,48.74004864,0.00000000,
4.397732,-5.6040,-1.3558,-0.9859,55.75410016,48.74004864,0.00000000,
4.407635,-5.6040,-1.3558,-0.9859,55.75410016,48.74004864,0.00000000,
4.408511,-5.6040,-1.3558,-0.9859,55.75410016,48.74004864,0.00000000,
4.417370,-5.6040,-1.3558,-0.9859,55.75410016,48.74004864,0.00000000,
4.427134,-5.6040,-1.3558,-0.9859,55.75410016,48.74004864,0.00000000,
4.427992,4.3218,-3.7800,3.5505,55.75410016,48.74004864,0.00000000,
4.428865,4.3218,-3.7800,3.5505,55.75410016,48.74004864,0.00000000,
4.436833,4.3218,-3.7800,3.5505,55.75410016,48.74004864,0.00000000,
4.446415,4.3218,-3.7800,3.5505,55.75410016,48.74004864,0.00000000,
4.447191,4.3218,-3.7800,3.5505,55.75410016,48.74004864,0.00000000,
4.457141,4.3218,-3.7800,3.5505,55.75410016,48.74004864,0.00000000,
4.466091,4.3218,-3.7800,3.5505,55.75410016,48.74004864,0.00000000,
4.466831,4.3218,-3.7800,3.5505,55.75410016,48.74004864,0.00000000,
4.467423,1.4410,2.2400,5.2908,55.75410016,48.74004864,0.00000000,
4.475343,1.4410,2.2400,5.2908,55.75410016,48.74004864,0.00000000,
4.485200,1.4410,2.2400,5.2908,55.75410016,48.74004864,0.00000000,
4.485868,1.4410,2.2400,5.2908,55.75410016,48.74004864,0.00000000,
4.494852,1.4410,2.2400,5.2908,55.75410016,48.74004864,0.00000000,
4.504016,1.4410,2.2400,5.2908,55.75410016,48.74004864,0.00000000,
4.504944,-0.8487,6.5420,-2.3911,55.75410016,48.74004864,0.00000000,
4.505933,-0.8487,6.5420,-2.3911,55.75410016,48.74004864,0.00000000,
4.514202,-0.8487,6.5420,-2.3911,55.75410016,48.74004864,0.00000000,
4.523125,-0.8487,6.5420,-2.3911,55.75410016,48.74004864,0.00000000,
4.524151,-0.8487,6.5420,-2.3911,55.75410016,48.74004864,0.00000000,
4.533570,-0.8487,6.5420,-2.3911,55.75410016,48.74004864,0.00000000,
4.542788,-0.8487,6.5420,-2.3911,55.75410016,48.74004864,0.00000000,
4.543783,-0.8487,6.5420,-2.3911,55.75410016,48.74004864,0.00000000,
4.544361,6.4921,1.7220,2.1258,55.75410016,48.74004864,0.00000000,
4.552594,6.4921,1.7220,2.1258,55.75410016,48.74004864,0.00000000,
4.562389,6.4921,1.7220,2.1258,55.75410016,48.74004864,0.00000000,
4.563333,6.4921,1.7220,2.1258,55.75410016,48.74004864,0.00000000,
4.571694,6.4921,1.7220,2.1258,55.75410016,48.74004864,0.00000000,
4.580768,6.4921,1.7220,2.1258,55.75410016,48.74004864,0.00000000,
4.581431,6.4921,1.7220,2.1258,55.75410016,48.74004864,0.00000000,
4.582007,6.6010,0.9433,-0.0420,55.75410016,48.74004864,0.00000000,
4.591086,6.6010,0.9433,-0.0420,55.75410016,48.74004864,0.00000000,
4.602081,6.6010,0.9433,-0.0420,55.75410016,48.74004864,0.00000000,
4.602592,6.6010,0.9433,-0.0420,55.75410016,48.74004864,0.00000000,
4.609935,6.6010,0.9433,-0.0420,55.75410016,48.74004864,0.00000000,
4.619990,6.6010,0.9433,-0.0420,55.75410016,48.74004864,0.00000000,
4.620898,6.6010,0.9433,-0.0420,55.75410016,48.74004864,0.00000000,
4.621493,2.2674,2.2669,-6.2733,55.75410016,48.74004864,0.00000000,
4.629349,2.2674,2.2669,-6.2733,55.75410016,48.74004864,0.00000000,
4.638691,2.2674,2.2669,-6.2733,55.75410016,48.74004864,0.00000000,
4.639635,2.2674,2.2669,-6.2733,55.75410016,48.74004864,0.00000000,
4.648460,2.2674,2.2669,-6.2733,55.75410016,48.74004864,0.00000000,
4.658343,2.2674,2.2669,-6.2733,55.75410016,48.74004864,0.00000000,
4.659211,2.2674,2.2669,-6.2733,55.75410016,48.74004864,0.00000000,
4.659715,4.9397,-3.5075,6.6180,55.75410016,48.74004864,0.00000000,
4.668018,4.9397,-3.5075,6.6180,55.75410016,48.74004864,0.00000000,
4.677710,4.9397,-3.5075,6.6180,55.75410016,48.74004864,0.00000000,
4.678568,4.9397,-3.5075,6.6180,55.75410016,48.74004864,0.00000000,
4.686475,4.9397,-3.5075,6.6180,55.75410016,48.74004864,0.00000000,
4.696894,4.9397,-3.5075,6.6180,55.75410016,48.74004864,0.00000000,
4.697703,-2.2480,1.0761,-2.6548,55.75410016,48.74004864,0.00000000,
4.698689,-2.2480,1.0761,-2.6548,55.75410016,48.74004864,0.00000000,
4.706240,-2.2480,1.0761,-2.6548,55.75410016,48.74004864,0.00000000,
4.716044,-2.2480,1.0761,-2.6548,55.75410016,48.74004864,0.00000000,
4.716692,-2.2480,1.0761,-2.6548,55.75410016,48.74004864,0.00000000,
4.726142,-2.2480,1.0761,-2.6548,55.75410016,48.74004864,0.00000000,
4.736905,-2.2480,1.0761,-2.6548,55.75410016,48.74004864,0.00000000,
4.737883,3.0733,-5.0368,7.3826,55.75410016,48.74004864,0.00000000,
4.738887,3.0733,-5.0368,7.3826,55.75410016,48.74004864,0.00000000,
4.744966,3.0733,-5.0368,7.3826,55.75410016,48.74004864,0.00000000,
4.754321,3.0733,-5.0368,7.3826,55.75410016,48.74004864,0.00000000,
4.755272,3.0733,-5.0368,7.3826,55.75410016,48.74004864,0.00000000,
4.764357,3.0733,-5.0368,7.3826,55.75410016,48.74004864,0.00000000,
4.773500,3.0733,-5.0368,7.3826,55.75410016,48.74004864,0.00000000,
4.774519,3.0733,-5.0368,7.3826,55.75410016,48.74004864,0.00000000,
4.775137,-2.6359,-3.7592,8.3452,55.75410016,48.74004864,0.00000000,
4.783816,-2.6359,-3.7592,8.3452,55.75410016,48.74004864,0.00000000,
4.793029,-2.6359,-3.7592,8.3452,55.75410016,48.74004864,0.00000000,
4.794014,-2.6359,-3.7592,8.3452,55.75410016,48.74004864,0.00000000,
4.802622,-2.6359,-3.7592,8.3452,55.75410016,48.74004864,0.00000000,
4.812659,-2.6359,-3.7592,8.3452,55.75410016,48.74004864,0.00000000,
4.813364,-2.6359,-3.7592,8.3452,55.75410016,48.74004864,0.00000000,
4.813946,-2.8051,-0.4618,0.6254,55.75410016,48.74004864,0.00000000,
4.821357,-2.8051,-0.4618,0.6254,55.75410016,48.74004864,0.00000000,
4.831705,-2.8051,-0.4618,0.6254,55.75410016,48.74004864,0.00000000,
4.832394,-2.8051,-0.4618,0.6254,55.75410016,48.74004864,0.00000000,
4.842816,-2.8051,-0.4618,0.6254,55.75410016,48.74004864,0.00000000,
4.851433,-0.6195,-1.4217,-4.1847,55.75410016,48.74004864,0.00000000,
4.852473,-0.6195,-1.4217,-4.1847,55.75410016,48.74004864,0.00000000,
4.852984,-0.6195,-1.4217,-4.1847,55.75410016,48.74004864,0.00000000,
4.860521,-0.6195,-1.4217,-4.1847,55.75410016,48.74004864,0.00000000,
4.869759,-0.6195,-1.4217,-4.1847,55.75410016,48.74004864,0.00000000,
4.870709,-0.6195,-1.4217,-4.1847,55.75410016,48.74004864,0.00000000,
4.879513,-0.6195,-1.4217,-4.1847,55.75410016,48.74004864,0.00000000,
4.888431,-0.6195,-1.4217,-4.1847,55.75410016,48.74004864,0.00000000,
4.889336,-0.6195,-1.4217,-4.1847,55.75410016,48.74004864,0.00000000,
4.889912,-0.0845,-2.7865,-3.9590,55.75410016,48.74004864,0.00000000,
4.899853,-0.0845,-2.7865,-3.9590,55.75410016,48.74004864,0.00000000,
4.908921,-0.0845,-2.7865,-3.9590,55.75410016,48.74004864,0.00000000,
4.909848,-0.0845,-2.7865,-3.9590,55.75410016,48.74004864,0.00000000,
4.917296,-0.0845,-2.7865,-3.9590,55.75410016,48.74004864,0.00000000,
4.926805,-0.0845,-2.7865,-3.9590,55.75410016,48.74004864,0.00000000,
4.927725,-0.0845,-2.7865,-3.9590,55.75410016,48.74004864,0.00000000,
4.928309,-7.0050,-0.8384,-7.6357,55.75410016,48.74004864,0.00000000,
4.936896,-7.0050,-0.8384,-7.6357,55.75410016,48.74004864,0.00000000,
4.946499,-7.0050,-0.8384,-7.6357,55.75410016,48.74004864,0.00000000,
4.947214,-7.0050,-0.8384,-7.6357,55.75410016,48.74004864,0.00000000,
4.955769,-7.0050,-0.8384,-7.6357,55.75410016,48.74004864,0.00000000,
4.966339,-7.0050,-0.8384,-7.6357,55.75410016,48.74004864,0.00000000,
4.967103,-7.0050,-0.8384,-7.6357,55.75410016,48.74004864,0.00000000,
4.967667,-3.6905,-2.8350,-2.4179,55.75410016,48.74004864,0.00000000,
4.975840,-3.6905,-2.8350,-2.4179,55.75410016,48.74004864,0.00000000,
4.985042,-3.6905,-2.8350,-2.4179,55.75410016,48.74004864,0.00000000,
4.986027,-3.6905,-2.8350,-2.4179,55.75410016,48.74004864,0.00000000,
4.995015,-3.6905,-2.8350,-2.4179,55.75410016,48.74004864,0.00000000,
5.003985,-3.6905,-2.8350,-2.4179,55.75410016,48.74004864,0.00000000,
5.004854,-3.6905,-2.8350,-2.4179,55.75410016,48.74004864,0.00000000,
5.005412,-3.0216,-1.7380,1.1802,55.75410016,48.74004864,0.00000000,
5.014391,-3.0216,-1.7380,1.1802,55.75410016,48.74004864,0.00000000,
5.023820,-3.0216,-1.7380,1.1802,55.75410016,48.74004864,0.00000000,
5.024670,-3.0216,-1.7380,1.1802,55.75410016,48.74004864,0.00000000,
5.032448,-3.0216,-1.7380,1.1802,55.75410016,48.74004864,0.00000000,
5.043165,-3.0216,-1.7380,1.1802,55.75410016,48.74004864,0.00000000,
5.044087,-3.0216,-1.7380,1.1802,55.75410016,48.74004864,0.00000000,
5.044630,0.9241,-0.7691,3.9762,55.75410016,48.74004864,0.00000000,
5.052731,0.9241,-0.7691,3.9762,55.75410016,48.74004864,0.00000000,
5.063314,0.9241,-0.7691,3.9762,55.75410016,48.74004864,0.00000000,
5.064036,0.9241,-0.7691,3.9762,55.75410016,48.74004864,0.00000000,
5.071622,0.9241,-0.7691,3.9762,55.75410016,48.74004864,0.00000000,
5.082267,0.9241,-0.7691,3.9762,55.75410016,48.74004864,0.00000000,
5.082931,0.9241,-0.7691,3.9762,55.75410016,48.74004864,0.00000000,
5.083504,-4.8768,3.6958,0.0062,55.75410016,48.74004864,0.00000000,
5.090855,-4.8768,3.6958,0.0062,55.75410016,48.74004864,0.00000000,
5.100869,-4.8768,3.6958,0.0062,55.75410016,48.74004864,0.00000000,
5.101507,-4.8768,3.6958,0.0062,55.75410016,48.74004864,0.00000000,
5.110468,-4.8768,3.6958,0.0062,55.75410016,48.74004864,0.00000000,
5.120699,-4.8768,3.6958,0.0062,55.75410016,48.74004864,0.00000000,
5.121528,-4.8768,3.6958,0.0062,55.75410016,48.74004864,0.00000000,
5.122087,-2.7744,2.1313,5.9596,55.75410016,48.74004864,0.00000000,
5.129793,-2.7744,2.1313,5.9596,55.75410016,48.74004864,0.00000000,
5.138348,-2.7744,2.1313,5.9596,55.75410016,48.74004864,0.00000000,
5.139257,-2.7744,2.1313,5.9596,55.75410016,48.74004864,0.00000000,
5.148425,-2.7744,2.1313,5.9596,55.75410016,48.74004864,0.00000000,
5.158568,-2.7744,2.1313,5.9596,55.75410016,48.74004864,0.00000000,
5.159404,-2.7744,2.1313,5.9596,55.75410016,48.74004864,0.00000000,
5.159922,4.1943,2.0330,-2.9204,55.75410016,48.74004864,0.00000000,
5.167827,4.1943,2.0330,-2.9204,55.75410016,48.74004864,0.00000000,
5.177751,4.1943,2.0330,-2.9204,55.75410016,48.74004864,0.00000000,
5.178605,4.1943,2.0330,-2.9204,55.75410016,48.74004864,0.00000000,
5.187247,4.1943,2.0330,-2.9204,55.75410016,48.74004864,0.00000000,
5.197128,4.1943,2.0330,-2.9204,55.75410016,48.74004864,0.00000000,
5.197790,7.1046,1.4311,-7.5216,55.75410016,48.74004864,0.00000000,
5.198658,7.1046,1.4311,-7.5216,55.75410016,48.74004864,0.00000000,
5.206794,7.1046,1.4311,-7.5216,55.75410016,48.74004864,0.00000000,
5.216057,7.1046,1.4311,-7.5216,55.75410016,48.74004864,0.00000000,
5.216776,7.1046,1.4311,-7.5216,55.75410016,48.74004864,0.00000000,
5.225869,7.1046,1.4311,-7.5216,55.75410016,48.74004864,0.00000000,
5.235350,7.1046,1.4311,-7.5216,55.75410016,48.74004864,0.00000000,
5.236239,1.9573,0.4595,-2.5399,55.75410016,48.74004864,0.00000000,
5.237308,1.9573,0.4595,-2.5399,55.75410016,48.74004864,0.00000000,
5.245633,1.9573,0.4595,-2.5399,55.75410016,48.74004864,0.00000000,
5.254599,1.9573,0.4595,-2.5399,55.75410016,48.74004864,0.00000000,
5.255559,1.9573,0.4595,-2.5399,55.75410016,48.74004864,0.00000000,
5.264037,1.9573,0.4595,-2.5399,55.75410016,48.74004864,0.00000000,
5.274090,1.9573,0.4595,-2.5399,55.75410016,48.74004864,0.00000000,
5.274994,1.9573,0.4595,-2.5399,55.75410016,48.74004864,0.00000000,
5.275525,3.2216,-0.6866,0.7090,55.75410016,48.74004864,0.00000000,
5.283785,3.2216,-0.6866,0.7090,55.75410016,48.74004864,0.00000000,
5.293763,3.2216,-0.6866,0.7090,55.75410016,48.74004864,0.00000000,
5.294636,3.2216,-0.6866,0.7090,55.75410016,48.74004864,0.00000000,
5.302369,3.2216,-0.6866,0.7090,55.75410016,48.74004864,0.00000000,
5.312571,3.2216,-0.6866,0.7090,55.75410016,48.74004864,0.00000000,
5.313243,3.2216,-0.6866,0.7090,55.75410016,48.74004864,0.00000000,
5.313824,3.0967,-0.4731,0.1876,55.75410016,48.74004864,0.00000000,
5.321363,3.0967,-0.4731,0.1876,55.75410016,48.74004864,0.00000000,
5.331676,3.0967,-0.4731,0.1876,55.75410016,48.74004864,0.00000000,
5.332343,3.0967,-0.4731,0.1876,55.75410016,48.74004864,0.00000000,
5.341505,3.0967,-0.4731,0.1876,55.75410016,48.74004864,0.00000000,
5.350996,3.0967,-0.4731,0.1876,55.75410016,48.74004864,0.00000000,
5.351725,3.0967,-0.4731,0.1876,55.75410016,48.74004864,0.00000000,
5.352262,1.2639,-3.3441,6.4350,55.75410016,48.74004864,0.00000000,
5.363106,1.2639,-3.3441,6.4350,55.75410016,48.74004864,0.00000000,
5.369421,1.2639,-3.3441,6.4350,55.75410016,48.74004864,0.00000000,
5.370453,1.2639,-3.3441,6.4350,55.75410016,48.74004864,0.00000000,
5.380216,1.2639,-3.3441,6.4350,55.75410016,48.74004864,0.00000000,
5.388920,1.2639,-3.3441,6.4350,55.75410016,48.74004864,0.00000000,
5.389931,1.2639,-3.3441,6.4350,55.75410016,48.74004864,0.00000000,
5.390699,-3.6210,-2.3172,6.5104,55.75410016,48.74004864,0.00000000,
5.399046,-3.6210,-2.3172,6.5104,55.75410016,48.74004864,0.00000000,
5.410431,-3.6210,-2.3172,6.5104,55.75410016,48.74004864,0.00000000,
5.411365,-3.6210,-2.3172,6.5104,55.75410016,48.74004864,0.00000000,
5.418486,-3.6210,-2.3172,6.5104,55.75410016,48.74004864,0.00000000,
5.428643,-3.6210,-2.3172,6.5104,55.75410016,48.74004864,0.00000000,
5.429319,-3.6210,-2.3172,6.5104,55.75410016,48.74004864,0.00000000,
5.429833,-2.4499,-1.6838,-3.6851,55.75410016,48.74004864,0.00000000,
5.437619,-2.4499,-1.6838,-3.6851,55.75410016,48.74004864,0.00000000,
5.447014,-2.4499,-1.6838,-3.6851,55.75410016,48.74004864,0.00000000,
5.447729,-2.4499,-1.6838,-3.6851,55.75410016,48.74004864,0.00000000,
5.457199,-2.4499,-1.6838,-3.6851,55.75410016,48.74004864,0.00000000,
5.466562,-2.4499,-1.6838,-3.6851,55.75410016,48.74004864,0.00000000,
5.467428,-2.4499,-1.6838,-3.6851,55.75410016,48.74004864,0.00000000,
5.467980,-0.0956,-2.2046,-8.8115,55.75410016,48.74004864,0.00000000,
5.476105,-0.0956,-2.2046,-8.8115,55.75410016,48.74004864,0.00000000,
5.485198,-0.0956,-2.2046,-8.8115,55.75410016,48.74004864,0.00000000,
5.486062,-0.0956,-2.2046,-8.8115,55.75410016,48.74004864,0.00000000,
5.495489,-0.0956,-2.2046,-8.8115,55.75410016,48.74004864,0.00000000,
5.504844,-0.0956,-2.2046,-8.8115,55.75410016,48.74004864,0.00000000,
5.505741,-0.0956,-2.2046,-8.8115,55.75410016,48.74004864,0.00000000,
5.506300,-4.9418,-2.3817,-1.6992,55.75410016,48.74004864,0.00000000,
5.514682,-4.9418,-2.3817,-1.6992,55.75410016,48.74004864,0.00000000,
5.525355,-4.9418,-2.3817,-1.6992,55.75410016,48.74004864,0.00000000,
5.526237,-4.9418,-2.3817,-1.6992,55.75410016,48.74004864,0.00000000,
5.534088,-4.9418,-2.3817,-1.6992,55.75410016,48.74004864,0.00000000,
5.543757,-4.9418,-2.3817,-1.6992,55.75410016,48.74004864,0.00000000,
5.544627,-4.9418,-2.3817,-1.6992,55.75410016,48.74004864,0.00000000,
5.545191,-4.6199,-1.4322,-5.4386,55.75410016,48.74004864,0.00000000,
5.552414,-4.6199,-1.4322,-5.4386,55.75410016,48.74004864,0.00000000,
5.562973,-4.6199,-1.4322,-5.4386,55.75410016,48.74004864,0.00000000,
5.563697,-4.6199,-1.4322,-5.4386,55.75410016,48.74004864,0.00000000,
5.573107,-4.6199,-1.4322,-5.4386,55.75410016,48.74004864,0.00000000,
5.581949,-4.6199,-1.4322,-5.4386,55.75410016,48.74004864,0.00000000,
5.582644,-4.6199,-1.4322,-5.4386,55.75410016,48.74004864,0.00000000,
5.583177,-2.7403,-1.8724,2.4386,55.75410016,48.74004864,0.00000000,
5.591679,-2.7403,-1.8724,2.4386,55.75410016,48.74004864,0.00000000,
5.601504,-2.7403,-1.8724,2.4386,55.75410016,48.74004864,0.00000000,
5.602387,-2.7403,-1.8724,2.4386,55.75410016,48.74004864,0.00000000,
5.610855,-2.7403,-1.8724,2.4386,55.75410016,48.74004864,0.00000000,
5.620451,-2.7403,-1.8724,2.4386,55.75410016,48.74004864,0.00000000,
5.621310,-2.7403,-1.8724,2.4386,55.75410016,48.74004864,0.00000000,
5.622930,1.4555,-2.4303,6.3718,55.75410016,48.74004864,0.00000000,
5.630300,1.4555,-2.4303,6.3718,55.75410016,48.74004864,0.00000000,
5.639968,1.4555,-2.4303,6.3718,55.75410016,48.74004864,0.00000000,
5.640921,1.4555,-2.4303,6.3718,55.75410016,48.74004864,0.00000000,
5.649540,1.4555,-2.4303,6.3718,55.75410016,48.74004864,0.00000000,
5.659359,1.4555,-2.4303,6.3718,55.75410016,48.74004864,0.00000000,
5.660337,1.4555,-2.4303,6.3718,55.75410016,48.74004864,0.00000000,
5.660867,3.3088,-0.4411,5.8498,55.75410016,48.74004864,0.00000000,
5.668312,3.3088,-0.4411,5.8498,55.75410016,48.74004864,0.00000000,
5.678661,3.3088,-0.4411,5.8498,55.75410016,48.74004864,0.00000000,
5.679388,3.3088,-0.4411,5.8498,55.75410016,48.74004864,0.00000000,
5.688085,3.3088,-0.4411,5.8498,55.75410016,48.74004864,0.00000000,
5.697537,3.3088,-0.4411,5.8498,55.75410016,48.74004864,0.00000000,
5.698233,3.3088,-0.4411,5.8498,55.75410016,48.74004864,0.00000000,
5.698763,0.7864,4.3784,3.0732,55.75410016,48.74004864,0.00000000,
5.707585,0.7864,4.3784,3.0732,55.75410016,48.74004864,0.00000000,
5.717027,0.7864,4.3784,3.0732,55.75410016,48.74004864,0.00000000,
5.717770,0.7864,4.3784,3.0732,55.75410016,48.74004864,0.00000000,
5.726785,0.7864,4.3784,3.0732,55.75410016,48.74004864,0.00000000,
5.735724,0.7864,4.3784,3.0732,55.75410016,48.74004864,0.00000000,
5.736667,0.7864,4.3784,3.0732,55.75410016,48.74004864,0.00000000,
5.737378,2.4464,3.6964,0.1873,55.75410016,48.74004864,0.00000000,
5.746085,2.4464,3.6964,0.1873,55.75410016,48.74004864,0.00000000,
5.754713,2.4464,3.6964,0.1873,55.75410016,48.74004864,0.00000000,
5.755717,2.4464,3.6964,0.1873,55.75410016,48.74004864,0.00000000,
5.765085,2.4464,3.6964,0.1873,55.75410016,48.74004864,0.00000000,
5.774599,2.4464,3.6964,0.1873,55.75410016,48.74004864,0.00000000,
5.775578,2.4464,3.6964,0.1873,55.75410016,48.74004864,0.00000000,
5.776128,3.2826,3.3581,-1.8632,55.75410016,48.74004864,0.00000000,
5.784137,3.2826,3.3581,-1.8632,55.75410016,48.74004864,0.00000000,
5.793950,3.2826,3.3581,-1.8632,55.75410016,48.74004864,0.00000000,
5.794838,3.2826,3.3581,-1.8632,55.75410016,48.74004864,0.00000000,
5.803537,3.2826,3.3581,-1.8632,55.75410016,48.74004864,0.00000000,
5.812965,3.2826,3.3581,-1.8632,55.75410016,48.74004864,0.00000000,
5.813890,3.2826,3.3581,-1.8632,55.75410016,48.74004864,0.00000000,
5.814441,3.0949,3.0328,-7.4527,55.75410016,48.74004864,0.00000000,
5.822670,3.0949,3.0328,-7.4527,55.75410016,48.74004864,0.00000000,
5.832388,3.0949,3.0328,-7.4527,55.75410016,48.74004864,0.00000000,
5.833068,3.0949,3.0328,-7.4527,55.75410016,48.74004864,0.00000000,
5.842563,3.0949,3.0328,-7.4527,55.75410016,48.74004864,0.00000000,
5.851469,3.0949,3.0328,-7.4527,55.75410016,48.74004864,0.00000000,
5.852371,3.0949,3.0328,-7.4527,55.75410016,48.74004864,0.00000000,
5.853016,4.4102,-2.5806,8.2088,55.75410016,48.74004864,0.00000000,
5.861059,4.4102,-2.5806,8.2088,55.75410016,48.74004864,0.00000000,
5.870177,4.4102,-2.5806,8.2088,55.75410016,48.74004864,0.00000000,
5.871178,4.4102,-2.5806,8.2088,55.75410016,48.74004864,0.00000000,
5.881831,4.4102,-2.5806,8.2088,55.75410016,48.74004864,0.00000000,
5.890040,4.4102,-2.5806,8.2088,55.75410016,48.74004864,0.00000000,
5.891029,4.4102,-2.5806,8.2088,55.75410016,48.74004864,0.00000000,
5.891612,-0.6049,1.5675,-4.0804,55.75410016,48.74004864,0.00000000,
5.899726,-0.6049,1.5675,-4.0804,55.75410016,48.74004864,0.00000000,
5.909387,-0.6049,1.5675,-4.0804,55.75410016,48.74004864,0.00000000,
5.910364,-0.6049,1.5675,-4.0804,55.75410016,48.74004864,0.00000000,
5.918304,-0.6049,1.5675,-4.0804,55.75410016,48.74004864,0.00000000,
5.928783,-0.6049,1.5675,-4.0804,55.75410016,48.74004864,0.00000000,
5.929485,-0.6049,1.5675,-4.0804,55.75410016,48.74004864,0.00000000,
5.930026,3.1121,-1.0642,1.4191,55.75410016,48.74004864,0.00000000,
5.937395,3.1121,-1.0642,1.4191,55.75410016,48.74004864,0.00000000,
5.947473,3.1121,-1.0642,1.4191,55.75410016,48.74004864,0.00000000,
5.948069,3.1121,-1.0642,1.4191,55.75410016,48.74004864,0.00000000,
5.957168,3.1121,-1.0642,1.4191,55.75410016,48.74004864,0.00000000,
5.966516,3.1121,-1.0642,1.4191,55.75410016,48.74004864,0.00000000,
5.967296,3.1121,-1.0642,1.4191,55.75410016,48.74004864,0.00000000,
5.967840,-0.8120,-3.0609,4.0676,55.75410016,48.74004864,0.00000000,
5.975749,-0.8120,-3.0609,4.0676,55.75410016,48.74004864,0.00000000,
5.985693,-0.8120,-3.0609,4.0676,55.75410016,48.74004864,0.00000000,
5.986567,-0.8120,-3.0609,4.0676,55.75410016,48.74004864,0.00000000,
5.995892,-0.8120,-3.0609,4.0676,55.75410016,48.74004864,0.00000000,
6.005329,-0.8120,-3.0609,4.0676,55.75410016,48.74004864,0.00000000,
6.006077,-0.8120,-3.0609,4.0676,55.75410016,48.74004864,0.00000000,
6.006533,-2.6403,-1.0303,1.9542,55.75410016,48.74004864,0.00000000,
6.014306,-2.6403,-1.0303,1.9542,55.75410016,48.74004864,0.00000000,
6.023534,-2.6403,-1.0303,1.9542,55.75410016,48.74004864,0.00000000,
6.023982,-2.6403,-1.0303,1.9542,55.75410016,48.74004864,0.00000000,
6.033964,-2.6403,-1.0303,1.9542,55.75410016,48.74004864,0.00000000,
6.043080,-2.6403,-1.0303,1.9542,55.75410016,48.74004864,0.00000000,
6.043460,-2.6403,-1.0303,1.9542,55.75410016,48.74004864,0.00000000,
6.043691,1.2338,-2.3247,-5.1951,55.75410016,48.74004864,0.00000000,
6.052811,1.2338,-2.3247,-5.1951,55.75410016,48.74004864,0.00000000,
6.063138,1.2338,-2.3247,-5.1951,55.75410016,48.74004864,0.00000000,
6.063567,1.2338,-2.3247,-5.1951,55.75410016,48.74004864,0.00000000,
6.072845,1.2338,-2.3247,-5.1951,55.75410016,48.74004864,0.00000000,
6.083479,1.2338,-2.3247,-5.1951,55.75410016,48.74004864,0.00000000,
6.084156,1.2338,-2.3247,-5.1951,55.75410016,48.74004864,0.00000000,
6.084888,-3.9373,-4.0972,-5.3641,55.75410016,48.74004864,0.00000000,
6.091845,-3.9373,-4.0972,-5.3641,55.75410016,48.74004864,0.00000000,
6.100791,-3.9373,-4.0972,-5.3641,55.75410016,48.74004864,0.00000000,
6.101527,-3.9373,-4.0972,-5.3641,55.75410016,48.74004864,0.00000000,
6.110569,-3.9373,-4.0972,-5.3641,55.75410016,48.74004864,0.00000000,
6.121426,-3.9373,-4.0972,-5.3641,55.75410016,48.74004864,0.00000000,
6.122173,-3.9373,-4.0972,-5.3641,55.75410016,48.74004864,0.00000000,
6.122586,-3.8143,-3.2124,-12.2102,55.75410016,48.74004864,0.00000000,
6.130426,-3.8143,-3.2124,-12.2102,55.75410016,48.74004864,0.00000000,
6.139581,-3.8143,-3.2124,-12.2102,55.75410016,48.74004864,0.00000000,
6.140600,-3.8143,-3.2124,-12.2102,55.75410016,48.74004864,0.00000000,
6.149484,-3.8143,-3.2124,-12.2102,55.75410016,48.74004864,0.00000000,
6.159482,-3.8143,-3.2124,-12.2102,55.75410016,48.74004864,0.00000000,
6.160584,-3.8143,-3.2124,-12.2102,55.75410016,48.74004864,0.00000000,
6.161329,-5.7652,-2.7936,2.9367,55.75410016,48.74004864,0.00000000,
6.170990,-5.7652,-2.7936,2.9367,55.75410016,48.74004864,0.00000000,
6.178660,-5.7652,-2.7936,2.9367,55.75410016,48.74004864,0.00000000,
6.179313,-5.7652,-2.7936,2.9367,55.75410016,48.74004864,0.00000000,
6.187392,-5.7652,-2.7936,2.9367,55.75410016,48.74004864,0.00000000,
6.198666,-5.7652,-2.7936,2.9367,55.75410016,48.74004864,0.00000000,
6.199328,-5.7652,-2.7936,2.9367,55.75410016,48.74004864,0.00000000,
6.199852,-2.4270,-2.6666,8.8114,55.75410016,48.74004864,0.00000000,
6.207482,-2.4270,-2.6666,8.8114,55.75410016,48.74004864,0.00000000,
6.216866,-2.4270,-2.6666,8.8114,55.75410016,48.74004864,0.00000000,
6.217797,-2.4270,-2.6666,8.8114,55.75410016,48.74004864,0.00000000,
6.226410,-2.4270,-2.6666,8.8114,55.75410016,48.74004864,0.00000000,
6.235847,-2.4270,-2.6666,8.8114,55.75410016,48.74004864,0.00000000,
6.236832,-2.4270,-2.6666,8.8114,55.75410016,48.74004864,0.00000000,
6.237464,-0.8107,0.9412,7.4863,55.75410016,48.74004864,0.00000000,
6.246275,-0.8107,0.9412,7.4863,55.75410016,48.74004864,0.00000000,
6.255945,-0.8107,0.9412,7.4863,55.75410016,48.74004864,0.00000000,
6.256856,-0.8107,0.9412,7.4863,55.75410016,48.74004864,0.00000000,
6.265069,-0.8107,0.9412,7.4863,55.75410016,48.74004864,0.00000000,
6.274910,0.3415,4.3855,4.9737,55.75410016,48.74004864,0.00000000,
6.276183,0.3415,4.3855,4.9737,55.75410016,48.74004864,0.00000000,
6.276765,0.3415,4.3855,4.9737,55.75410016,48.74004864,0.00000000,
6.283850,0.3415,4.3855,4.9737,55.75410016,48.74004864,0.00000000,
6.294324,0.3415,4.3855,4.9737,55.75410016,48.74004864,0.00000000,
6.295004,0.3415,4.3855,4.9737,55.75410016,48.74004864,0.00000000,
6.302942,0.3415,4.3855,4.9737,55.75410016,48.74004864,0.00000000,
6.313213,3.5264,3.2652,5.2969,55.75410016,48.74004864,0.00000000,
6.314284,3.5264,3.2652,5.2969,55.75410016,48.74004864,0.00000000,
6.314836,3.5264,3.2652,5.2969,55.75410016,48.74004864,0.00000000,
6.322317,3.5264,3.2652,5.2969,55.75410016,48.74004864,0.00000000,
6.332086,3.5264,3.2652,5.2969,55.75410016,48.74004864,0.00000000,
6.332943,3.5264,3.2652,5.2969,55.75410016,48.74004864,0.00000000,
6.342014,3.5264,3.2652,5.2969,55.75410016,48.74004864,0.00000000,
6.351465,3.5264,3.2652,5.2969,55.75410016,48.74004864,0.00000000,
6.352278,3.5264,3.2652,5.2969,55.75410016,48.74004864,0.00000000,
6.352816,6.0177,3.8461,-1.3365,55.75410016,48.74004864,0.00000000,
6.362717,6.0177,3.8461,-1.3365,55.75410016,48.74004864,0.00000000,
6.370931,6.0177,3.8461,-1.3365,55.75410016,48.74004864,0.00000000,
6.371806,6.0177,3.8461,-1.3365,55.75410016,48.74004864,0.00000000,
6.380694,6.0177,3.8461,-1.3365,55.75410016,48.74004864,0.00000000,
6.390235,6.0177,3.8461,-1.3365,55.75410016,48.74004864,0.00000000,
6.391099,6.0177,3.8461,-1.3365,55.75410016,48.74004864,0.00000000,
6.391617,7.0052,3.8960,-11.6354,55.75410016,48.74004864,0.00000000,
6.403790,7.0052,3.8960,-11.6354,55.75410016,48.74004864,0.00000000,
6.409735,7.0052,3.8960,-11.6354,55.75410016,48.74004864,0.00000000,
6.410670,7.0052,3.8960,-11.6354,55.75410016,48.74004864,0.00000000,
6.418935,7.0052,3.8960,-11.6354,55.75410016,48.74004864,0.00000000,
6.428664,7.0052,3.8960,-11.6354,55.75410016,48.74004864,0.00000000,
6.429529,6.5371,-0.9385,1.7885,55.75410016,48.74004864,0.00000000,
6.430516,6.5371,-0.9385,1.7885,55.75410016,48.74004864,0.00000000,
6.438199,6.5371,-0.9385,1.7885,55.75410016,48.74004864,0.00000000,
6.447587,6.5371,-0.9385,1.7885,55.75410016,48.74004864,0.00000000,
6.448237,6.5371,-0.9385,1.7885,55.75410016,48.74004864,0.00000000,
6.457654,6.5371,-0.9385,1.7885,55.75410016,48.74004864,0.00000000,
6.466755,6.5371,-0.9385,1.7885,55.75410016,48.74004864,0.00000000,
6.467675,6.5371,-0.9385,1.7885,55.75410016,48.74004864,0.00000000,
6.468238,0.5199,-1.3662,1.1106,55.75410016,48.74004864,0.00000000,
6.477525,0.5199,-1.3662,1.1106,55.75410016,48.74004864,0.00000000,
6.485919,0.5199,-1.3662,1.1106,55.75410016,48.74004864,0.00000000,
6.486869,0.5199,-1.3662,1.1106,55.75410016,48.74004864,0.00000000,
6.496218,0.5199,-1.3662,1.1106,55.75410016,48.74004864,0.00000000,
6.505781,0.5199,-1.3662,1.1106,55.75410016,48.74004864,0.00000000,
6.506624,0.5199,-1.3662,1.1106,55.75410016,48.74004864,0.00000000,
6.507311,0.2342,-2.1495,3.0991,55.75410016,48.74004864,0.00000000,
6.515414,0.2342,-2.1495,3.0991,55.75410016,48.74004864,0.00000000,
6.524990,0.2342,-2.1495,3.0991,55.75410016,48.74004864,0.00000000,
6.525852,0.2342,-2.1495,3.0991,55.75410016,48.74004864,0.00000000,
6.534007,0.2342,-2.1495,3.0991,55.75410016,48.74004864,0.00000000,
6.544106,0.2342,-2.1495,3.0991,55.75410016,48.74004864,0.00000000,
6.544817,0.2342,-2.1495,3.0991,55.75410016,48.74004864,0.00000000,
6.545370,-2.0362,-6.6484,12.9341,55.75410016,48.74004864,0.00000000,
6.553344,-2.0362,-6.6484,12.9341,55.75410016,48.74004864,0.00000000,
6.563579,-2.0362,-6.6484,12.9341,55.75410016,48.74004864,0.00000000,
6.564328,-2.0362,-6.6484,12.9341,55.75410016,48.74004864,0.00000000,
6.573285,-2.0362,-6.6484,12.9341,55.75410016,48.74004864,0.00000000,
6.582228,-2.0362,-6.6484,12.9341,55.75410016,48.74004864,0.00000000,
6.582949,-3.8150,-2.6769,1.3926,55.75410016,48.74004864,0.00000000,
6.583970,-3.8150,-2.6769,1.3926,55.75410016,48.74004864,0.00000000,
6.592695,-3.8150,-2.6769,1.3926,55.75410016,48.74004864,0.00000000,
6.602351,-3.8150,-2.6769,1.3926,55.75410016,48.74004864,0.00000000,
6.603370,-3.8150,-2.6769,1.3926,55.75410016,48.74004864,0.00000000,
6.612388,-3.8150,-2.6769,1.3926,55.75410016,48.74004864,0.00000000,
6.621003,-3.8150,-2.6769,1.3926,55.75410016,48.74004864,0.00000000,
6.621967,-3.8150,-2.6769,1.3926,55.75410016,48.74004864,0.00000000,
6.622531,1.7000,-3.1754,-6.8907,55.75410016,48.74004864,0.00000000,
6.631168,1.7000,-3.1754,-6.8907,55.75410016,48.74004864,0.00000000,
6.641717,1.7000,-3.1754,-6.8907,55.75410016,48.74004864,0.00000000,
6.642590,1.7000,-3.1754,-6.8907,55.75410016,48.74004864,0.00000000,
6.649627,1.7000,-3.1754,-6.8907,55.75410016,48.74004864,0.00000000,
6.659308,1.7000,-3.1754,-6.8907,55.75410016,48.74004864,0.00000000,
6.659958,1.7000,-3.1754,-6.8907,55.75410016,48.74004864,0.00000000,
6.660526,-1.8009,-1.9222,-7.4352,55.75410016,48.74004864,0.00000000,
6.668900,-1.8009,-1.9222,-7.4352,55.75410016,48.74004864,0.00000000,
6.679161,-1.8009,-1.9222,-7.4352,55.75410016,48.74004864,0.00000000,
6.679784,-1.8009,-1.9222,-7.4352,55.75410016,48.74004864,0.00000000,
6.689102,-1.8009,-1.9222,-7.4352,55.75410016,48.74004864,0.00000000,
6.698720,-1.8009,-1.9222,-7.4352,55.75410016,48.74004864,0.00000000,
6.699413,-1.8009,-1.9222,-7.4352,55.75410016,48.74004864,0.00000000,
6.699928,-5.6327,0.0264,-6.9196,55.75410016,48.74004864,0.00000000,
6.707850,-5.6327,0.0264,-6.9196,55.75410016,48.74004864,0.00000000,
6.717490,-5.6327,0.0264,-6.9196,55.75410016,48.74004864,0.00000000,
6.718511,-5.6327,0.0264,-6.9196,55.75410016,48.74004864,0.00000000,
6.727198,-5.6327,0.0264,-6.9196,55.75410016,48.74004864,0.00000000,
6.736016,-5.6327,0.0264,-6.9196,55.75410016,48.74004864,0.00000000,
6.737102,-5.6327,0.0264,-6.9196,55.75410016,48.74004864,0.00000000,
6.737732,-4.0551,0.0673,-1.5837,55.75410016,48.74004864,0.00000000,
6.746344,-4.0551,0.0673,-1.5837,55.75410016,48.74004864,0.00000000,
6.756481,-4.0551,0.0673,-1.5837,55.75410016,48.74004864,0.00000000,
6.757459,-4.0551,0.0673,-1.5837,55.75410016,48.74004864,0.00000000,
6.765146,-4.0551,0.0673,-1.5837,55.75410016,48.74004864,0.00000000,
6.775218,-4.1721,-0.5333,4.8197,55.75410016,48.74004864,0.00000000,
6.776421,-4.1721,-0.5333,4.8197,55.75410016,48.74004864,0.00000000,
6.777019,-4.1721,-0.5333,4.8197,55.75410016,48.74004864,0.00000000,
6.784790,-4.1721,-0.5333,4.8197,55.75410016,48.74004864,0.00000000,
6.794346,-4.1721,-0.5333,4.8197,55.75410016,48.74004864,0.00000000,
6.795009,-4.1721,-0.5333,4.8197,55.75410016,48.74004864,0.00000000,
6.804105,-4.1721,-0.5333,4.8197,55.75410016,48.74004864,0.00000000,
6.813694,0.3541,-2.4039,-0.1109,55.75410016,48.74004864,0.00000000,
6.814728,0.3541,-2.4039,-0.1109,55.75410016,48.74004864,0.00000000,
6.815250,0.3541,-2.4039,-0.1109,55.75410016,48.74004864,0.00000000,
6.823280,0.3541,-2.4039,-0.1109,55.75410016,48.74004864,0.00000000,
6.832812,0.3541,-2.4039,-0.1109,55.75410016,48.74004864,0.00000000,
6.833752,0.3541,-2.4039,-0.1109,55.75410016,48.74004864,0.00000000,
6.842880,0.3541,-2.4039,-0.1109,55.75410016,48.74004864,0.00000000,
6.851427,0.3541,-2.4039,-0.1109,55.75410016,48.74004864,0.00000000,
6.852411,0.3541,-2.4039,-0.1109,55.75410016,48.74004864,0.00000000,
6.853030,0.1208,-1.8995,5.1092,55.75410016,48.74004864,0.00000000,
6.862283,0.1208,-1.8995,5.1092,55.75410016,48.74004864,0.00000000,
6.872528,0.1208,-1.8995,5.1092,55.75410016,48.74004864,0.00000000,
6.873508,0.1208,-1.8995,5.1092,55.75410016,48.74004864,0.00000000,
6.881573,0.1208,-1.8995,5.1092,55.75410016,48.74004864,0.00000000,
6.891379,0.1208,-1.8995,5.1092,55.75410016,48.74004864,0.00000000,
6.892317,0.1208,-1.8995,5.1092,55.75410016,48.74004864,0.00000000,
6.892884,2.8612,0.7088,3.9684,55.75410016,48.74004864,0.00000000,
6.899338,2.8612,0.7088,3.9684,55.75410016,48.74004864,0.00000000,
6.910202,2.8612,0.7088,3.9684,55.75410016,48.74004864,0.00000000,
6.911290,2.8612,0.7088,3.9684,55.75410016,48.74004864,0.00000000,
6.919145,2.8612,0.7088,3.9684,55.75410016,48.74004864,0.00000000,
6.929420,2.8612,0.7088,3.9684,55.75410016,48.74004864,0.00000000,
6.930209,3.7864,3.0294,-5.4312,55.75410016,48.74004864,0.00000000,
6.931185,3.7864,3.0294,-5.4312,55.75410016,48.74004864,0.00000000,
6.938765,3.7864,3.0294,-5.4312,55.75410016,48.74004864,0.00000000,
6.948202,3.7864,3.0294,-5.4312,55.75410016,48.74004864,0.00000000,
6.948915,3.7864,3.0294,-5.4312,55.75410016,48.74004864,0.00000000,
6.957323,3.7864,3.0294,-5.4312,55.75410016,48.74004864,0.00000000,
6.967025,3.7864,3.0294,-5.4312,55.75410016,48.74004864,0.00000000,
6.968083,3.7864,3.0294,-5.4312,55.75410016,48.74004864,0.00000000,
6.968708,7.4004,2.0280,-4.0376,55.75410016,48.74004864,0.00000000,
6.976578,7.4004,2.0280,-4.0376,55.75410016,48.74004864,0.00000000,
6.987145,7.4004,2.0280,-4.0376,55.75410016,48.74004864,0.00000000,
6.987855,7.4004,2.0280,-4.0376,55.75410016,48.74004864,0.00000000,
6.996210,7.4004,2.0280,-4.0376,55.75410016,48.74004864,0.00000000,
7.006078,7.4004,2.0280,-4.0376,55.75410016,48.74004864,0.00000000,
7.007044,7.4004,2.0280,-4.0376,55.75410016,48.74004864,0.00000000,
7.007620,2.3643,1.7618,-2.3240,55.75410016,48.74004864,0.00000000,
7.015966,2.3643,1.7618,-2.3240,55.75410016,48.74004864,0.00000000,
7.025319,2.3643,1.7618,-2.3240,55.75410016,48.74004864,0.00000000,
7.025969,2.3643,1.7618,-2.3240,55.75410016,48.74004864,0.00000000,
7.035879,2.3643,1.7618,-2.3240,55.75410016,48.74004864,0.00000000,
7.044767,5.0762,1.7513,3.9084,55.75410016,48.74004864,0.00000000,
7.045885,5.0762,1.7513,3.9084,55.75410016,48.74004864,0.00000000,
7.046418,5.0762,1.7513,3.9084,55.75410016,48.74004864,0.00000000,
7.054510,5.0762,1.7513,3.9084,55.75410016,48.74004864,0.00000000,
7.064111,5.0762,1.7513,3.9084,55.75410016,48.74004864,0.00000000,
7.064808,5.0762,1.7513,3.9084,55.75410016,48.74004864,0.00000000,
7.073497,5.0762,1.7513,3.9084,55.75410016,48.74004864,0.00000000,
7.083049,5.0762,1.7513,3.9084,55.75410016,48.74004864,0.00000000,
7.084078,5.0762,1.7513,3.9084,55.75410016,48.74004864,0.00000000,
7.084648,-1.1397,3.0864,-3.1166,55.75410016,48.74004864,0.00000000,
7.092330,-1.1397,3.0864,-3.1166,55.75410016,48.74004864,0.00000000,
7.101789,-1.1397,3.0864,-3.1166,55.75410016,48.74004864,0.00000000,
7.102737,-1.1397,3.0864,-3.1166,55.75410016,48.74004864,0.00000000,
7.111813,-1.1397,3.0864,-3.1166,55.75410016,48.74004864,0.00000000,
7.121774,-1.1397,3.0864,-3.1166,55.75410016,48.74004864,0.00000000,
7.122646,-1.1397,3.0864,-3.1166,55.75410016,48.74004864,0.00000000,
7.123171,1.9905,-6.0638,7.6424,55.75410016,48.74004864,0.00000000,
7.130760,1.9905,-6.0638,7.6424,55.75410016,48.74004864,0.00000000,
7.140711,1.9905,-6.0638,7.6424,55.75410016,48.74004864,0.00000000,
7.141651,1.9905,-6.0638,7.6424,55.75410016,48.74004864,0.00000000,
7.150956,1.9905,-6.0638,7.6424,55.75410016,48.74004864,0.00000000,
7.160490,1.9905,-6.0638,7.6424,55.75410016,48.74004864,0.00000000,
7.161148,1.9905,-6.0638,7.6424,55.75410016,48.74004864,0.00000000,
7.161659,-2.7960,-7.2072,8.5553,55.75410016,48.74004864,0.00000000,
7.169017,-2.7960,-7.2072,8.5553,55.75410016,48.74004864,0.00000000,
7.179019,-2.7960,-7.2072,8.5553,55.75410016,48.74004864,0.00000000,
7.179683,-2.7960,-7.2072,8.5553,55.75410016,48.74004864,0.00000000,
7.188843,-2.7960,-7.2072,8.5553,55.75410016,48.74004864,0.00000000,
7.198400,-2.7960,-7.2072,8.5553,55.75410016,48.74004864,0.00000000,
7.199263,-2.7960,-7.2072,8.5553,55.75410016,48.74004864,0.00000000,
7.199837,-1.9250,-3.8647,-6.2706,55.75410016,48.74004864,0.00000000,
7.208335,-1.9250,-3.8647,-6.2706,55.75410016,48.74004864,0.00000000,
7.216757,-1.9250,-3.8647,-6.2706,55.75410016,48.74004864,0.00000000,
7.217683,-1.9250,-3.8647,-6.2706,55.75410016,48.74004864,0.00000000,
7.227169,-1.9250,-3.8647,-6.2706,55.75410016,48.74004864,0.00000000,
7.237288,-1.9250,-3.8647,-6.2706,55.75410016,48.74004864,0.00000000,
7.238231,-1.9250,-3.8647,-6.2706,55.75410016,48.74004864,0.00000000,
7.238813,-0.7111,-2.9439,-8.1961,55.75410016,48.74004864,0.00000000,
7.246316,-0.7111,-2.9439,-8.1961,55.75410016,48.74004864,0.00000000,
7.256127,-0.7111,-2.9439,-8.1961,55.75410016,48.74004864,0.00000000,
7.257205,-0.7111,-2.9439,-8.1961,55.75410016,48.74004864,0.00000000,
7.267935,-0.7111,-2.9439,-8.1961,55.75410016,48.74004864,0.00000000,
7.275664,-0.7111,-2.9439,-8.1961,55.75410016,48.74004864,0.00000000,
7.276395,-0.7111,-2.9439,-8.1961,55.75410016,48.74004864,0.00000000,
7.276978,-5.6187,-2.1774,-3.4382,55.75410016,48.74004864,0.00000000,
7.284539,-5.6187,-2.1774,-3.4382,55.75410016,48.74004864,0.00000000,
7.294724,-5.6187,-2.1774,-3.4382,55.75410016,48.74004864,0.00000000,
7.295476,-5.6187,-2.1774,-3.4382,55.75410016,48.74004864,0.00000000,
7.304446,-5.6187,-2.1774,-3.4382,55.75410016,48.74004864,0.00000000,
7.314333,-5.6187,-2.1774,-3.4382,55.75410016,48.74004864,0.00000000,
7.315028,-5.6187,-2.1774,-3.4382,55.75410016,48.74004864,0.00000000,
7.315580,-6.7398,-1.4855,-4.1558,55.75410016,48.74004864,0.00000000,
7.323789,-6.7398,-1.4855,-4.1558,55.75410016,48.74004864,0.00000000,
7.332977,-6.7398,-1.4855,-4.1558,55.75410016,48.74004864,0.00000000,
7.334012,-6.7398,-1.4855,-4.1558,55.75410016,48.74004864,0.00000000,
7.342876,-6.7398,-1.4855,-4.1558,55.75410016,48.74004864,0.00000000,
7.352804,-6.7398,-1.4855,-4.1558,55.75410016,48.74004864,0.00000000,
7.353743,-6.7398,-1.4855,-4.1558,55.75410016,48.74004864,0.00000000,
7.354282,-2.3830,-2.3344,1.1838,55.75410016,48.74004864,0.00000000,
7.362366,-2.3830,-2.3344,1.1838,55.75410016,48.74004864,0.00000000,
7.371666,-2.3830,-2.3344,1.1838,55.75410016,48.74004864,0.00000000,
7.372628,-2.3830,-2.3344,1.1838,55.75410016,48.74004864,0.00000000,
7.381133,-2.3830,-2.3344,1.1838,55.75410016,48.74004864,0.00000000,
7.390971,-2.3830,-2.3344,1.1838,55.75410016,48.74004864,0.00000000,
7.391961,-2.3830,-2.3344,1.1838,55.75410016,48.74004864,0.00000000,
7.392528,-0.5810,0.2133,-0.5154,55.75410016,48.74004864,0.00000000,
7.400909,-0.5810,0.2133,-0.5154,55.75410016,48.74004864,0.00000000,
7.410745,-0.5810,0.2133,-0.5154,55.75410016,48.74004864,0.00000000,
7.411452,-0.5810,0.2133,-0.5154,55.75410016,48.74004864,0.00000000,
7.419257,-0.5810,0.2133,-0.5154,55.75410016,48.74004864,0.00000000,
7.430461,-0.5810,0.2133,-0.5154,55.75410016,48.74004864,0.00000000,
7.431166,-0.5810,0.2133,-0.5154,55.75410016,48.74004864,0.00000000,
7.431703,2.8096,-0.5607,6.9251,55.75410016,48.74004864,0.00000000,
7.438402,2.8096,-0.5607,6.9251,55.75410016,48.74004864,0.00000000,
7.447955,2.8096,-0.5607,6.9251,55.75410016,48.74004864,0.00000000,
7.448846,2.8096,-0.5607,6.9251,55.75410016,48.74004864,0.00000000,
7.458527,2.8096,-0.5607,6.9251,55.75410016,48.74004864,0.00000000,
7.467563,2.8096,-0.5607,6.9251,55.75410016,48.74004864,0.00000000,
7.468577,2.8096,-0.5607,6.9251,55.75410016,48.74004864,0.00000000,
7.469139,0.6976,2.4043,10.7109,55.75410016,48.74004864,0.00000000,
7.477632,0.6976,2.4043,10.7109,55.75410016,48.74004864,0.00000000,
7.487830,0.6976,2.4043,10.7109,55.75410016,48.74004864,0.00000000,
7.488783,0.6976,2.4043,10.7109,55.75410016,48.74004864,0.00000000,
7.496670,0.6976,2.4043,10.7109,55.75410016,48.74004864,0.00000000,
7.506626,0.6976,2.4043,10.7109,55.75410016,48.74004864,0.00000000,
7.507692,0.6976,2.4043,10.7109,55.75410016,48.74004864,0.00000000,
7.508247,2.5638,5.7610,-0.2635,55.75410016,48.74004864,0.00000000,
7.517369,2.5638,5.7610,-0.2635,55.75410016,48.74004864,0.00000000,
7.526318,2.5638,5.7610,-0.2635,55.75410016,48.74004864,0.00000000,
7.527130,2.5638,5.7610,-0.2635,55.75410016,48.74004864,0.00000000,
7.534617,2.5638,5.7610,-0.2635,55.75410016,48.74004864,0.00000000,
7.546135,2.5638,5.7610,-0.2635,55.75410016,48.74004864,0.00000000,
7.546908,2.5638,5.7610,-0.2635,55.75410016,48.74004864,0.00000000,
7.547494,6.8742,4.4760,-9.7623,55.75410016,48.74004864,0.00000000,
7.554757,6.8742,4.4760,-9.7623,55.75410016,48.74004864,0.00000000,
7.563680,6.8742,4.4760,-9.7623,55.75410016,48.74004864,0.00000000,
7.564375,6.8742,4.4760,-9.7623,55.75410016,48.74004864,0.00000000,
7.573782,6.8742,4.4760,-9.7623,55.75410016,48.74004864,0.00000000,
7.582867,6.8742,4.4760,-9.7623,55.75410016,48.74004864,0.00000000,
7.583945,6.8742,4.4760,-9.7623,55.75410016,48.74004864,0.00000000,
7.584592,7.1215,1.0951,-2.0582,55.75410016,48.74004864,0.00000000,
7.593208,7.1215,1.0951,-2.0582,55.75410016,48.74004864,0.00000000,
7.602004,7.1215,1.0951,-2.0582,55.75410016,48.74004864,0.00000000,
7.603021,7.1215,1.0951,-2.0582,55.75410016,48.74004864,0.00000000,
7.612277,7.1215,1.0951,-2.0582,55.75410016,48.74004864,0.00000000,
7.621591,7.1215,1.0951,-2.0582,55.75410016,48.74004864,0.00000000,
7.622537,7.1215,1.0951,-2.0582,55.75410016,48.74004864,0.00000000,
7.623330,3.8366,-0.6340,3.2796,55.75410016,48.74004864,0.00000000,
7.631718,3.8366,-0.6340,3.2796,55.75410016,48.74004864,0.00000000,
7.642293,3.8366,-0.6340,3.2796,55.75410016,48.74004864,0.00000000,
7.642908,3.8366,-0.6340,3.2796,55.75410016,48.74004864,0.00000000,
7.650293,3.8366,-0.6340,3.2796,55.75410016,48.74004864,0.00000000,
7.660753,2.9817,-2.7543,0.3039,55.75410016,48.74004864,0.00000000,
7.661781,2.9817,-2.7543,0.3039,55.75410016,48.74004864,0.00000000,
7.662331,2.9817,-2.7543,0.3039,55.75410016,48.74004864,0.00000000,
7.670419,2.9817,-2.7543,0.3039,55.75410016,48.74004864,0.00000000,
7.679331,2.9817,-2.7543,0.3039,55.75410016,48.74004864,0.00000000,
7.679982,2.9817,-2.7543,0.3039,55.75410016,48.74004864,0.00000000,
7.689748,2.9817,-2.7543,0.3039,55.75410016,48.74004864,0.00000000,
7.698169,2.9817,-2.7543,0.3039,55.75410016,48.74004864,0.00000000,
7.699095,2.9817,-2.7543,0.3039,55.75410016,48.74004864,0.00000000,
7.699721,1.6863,-3.2579,3.9433,55.75410016,48.74004864,0.00000000,
7.708963,1.6863,-3.2579,3.9433,55.75410016,48.74004864,0.00000000,
7.717444,1.6863,-3.2579,3.9433,55.75410016,48.74004864,0.00000000,
7.718435,1.6863,-3.2579,3.9433,55.75410016,48.74004864,0.00000000,
7.727831,1.6863,-3.2579,3.9433,55.75410016,48.74004864,0.00000000,
7.737455,1.6863,-3.2579,3.9433,55.75410016,48.74004864,0.00000000,
7.738533,1.6863,-3.2579,3.9433,55.75410016,48.74004864,0.00000000,
7.739070,-2.1344,-4.6249,3.0393,55.75410016,48.74004864,0.00000000,
7.746802,-2.1344,-4.6249,3.0393,55.75410016,48.74004864,0.00000000,
7.756938,-2.1344,-4.6249,3.0393,55.75410016,48.74004864,0.00000000,
7.757924,-2.1344,-4.6249,3.0393,55.75410016,48.74004864,0.00000000,
7.767464,-2.1344,-4.6249,3.0393,55.75410016,48.74004864,0.00000000,
7.775933,-2.5375,-2.3223,0.0314,55.75410016,48.74004864,0.00000000,
7.777093,-2.5375,-2.3223,0.0314,55.75410016,48.74004864,0.00000000,
7.777700,-2.5375,-2.3223,0.0314,55.75410016,48.74004864,0.00000000,
7.786626,-2.5375,-2.3223,0.0314,55.75410016,48.74004864,0.00000000,
7.795108,-2.5375,-2.3223,0.0314,55.75410016,48.74004864,0.00000000,
7.795816,-2.5375,-2.3223,0.0314,55.75410016,48.74004864,0.00000000,
7.804955,-2.5375,-2.3223,0.0314,55.75410016,48.74004864,0.00000000,
7.814377,-2.5375,-2.3223,0.0314,55.75410016,48.74004864,0.00000000,
7.815346,-2.5375,-2.3223,0.0314,55.75410016,48.74004864,0.00000000,
7.815971,0.1364,-2.1281,-3.4752,55.75410016,48.74004864,0.00000000,
7.824868,0.1364,-2.1281,-3.4752,55.75410016,48.74004864,0.00000000,
7.833336,0.1364,-2.1281,-3.4752,55.75410016,48.74004864,0.00000000,
7.834169,0.1364,-2.1281,-3.4752,55.75410016,48.74004864,0.00000000,
7.843266,0.1364,-2.1281,-3.4752,55.75410016,48.74004864,0.00000000,
7.852816,0.1364,-2.1281,-3.4752,55.75410016,48.74004864,0.00000000,
7.853807,0.1364,-2.1281,-3.4752,55.75410016,48.74004864,0.00000000,
7.854352,0.0909,-3.0687,-2.1025,55.75410016,48.74004864,0.00000000,
7.862803,0.0909,-3.0687,-2.1025,55.75410016,48.74004864,0.00000000,
7.872337,0.0909,-3.0687,-2.1025,55.75410016,48.74004864,0.00000000,
7.873282,0.0909,-3.0687,-2.1025,55.75410016,48.74004864,0.00000000,
7.881792,0.0909,-3.0687,-2.1025,55.75410016,48.74004864,0.00000000,
7.891294,0.0909,-3.0687,-2.1025,55.75410016,48.74004864,0.00000000,
7.892025,-7.3981,0.8602,-9.5132,55.75410016,48.74004864,0.00000000,
7.892958,-7.3981,0.8602,-9.5132,55.75410016,48.74004864,0.00000000,
7.900723,-7.3981,0.8602,-9.5132,55.75410016,48.74004864,0.00000000,
7.910158,-7.3981,0.8602,-9.5132,55.75410016,48.74004864,0.00000000,
7.910852,-7.3981,0.8602,-9.5132,55.75410016,48.74004864,0.00000000,
7.919944,-7.3981,0.8602,-9.5132,55.75410016,48.74004864,0.00000000,
7.929290,-7.3981,0.8602,-9.5132,55.75410016,48.74004864,0.00000000,
7.929901,-7.3981,0.8602,-9.5132,55.75410016,48.74004864,0.00000000,
7.930313,-3.8461,-2.2717,-0.8920,55.75410016,48.74004864,0.00000000,
7.939297,-3.8461,-2.2717,-0.8920,55.75410016,48.74004864,0.00000000,
7.948599,-3.8461,-2.2717,-0.8920,55.75410016,48.74004864,0.00000000,
7.949465,-3.8461,-2.2717,-0.8920,55.75410016,48.74004864,0.00000000,
7.958664,-3.8461,-2.2717,-0.8920,55.75410016,48.74004864,0.00000000,
7.969033,-3.8461,-2.2717,-0.8920,55.75410016,48.74004864,0.00000000,
7.969935,-3.8461,-2.2717,-0.8920,55.75410016,48.74004864,0.00000000,
7.970508,-3.2626,-2.4195,1.2733,55.75410016,48.74004864,0.00000000,
7.978091,-3.2626,-2.4195,1.2733,55.75410016,48.74004864,0.00000000,
7.987952,-3.2626,-2.4195,1.2733,55.75410016,48.74004864,0.00000000,
7.988893,-3.2626,-2.4195,1.2733,55.75410016,48.74004864,0.00000000,
7.997245,-3.2626,-2.4195,1.2733,55.75410016,48.74004864,0.00000000,
8.006944,-3.2626,-2.4195,1.2733,55.75410016,48.74004864,0.00000000,
8.007674,-3.2626,-2.4195,1.2733,55.75410016,48.74004864,0.00000000,
8.008408,-2.1688,-3.1660,15.8950,55.75410016,48.74004864,0.00000000,
8.016366,-2.1688,-3.1660,15.8950,55.75410016,48.74004864,0.00000000,
8.026202,-2.1688,-3.1660,15.8950,55.75410016,48.74004864,0.00000000,
8.026949,-2.1688,-3.1660,15.8950,55.75410016,48.74004864,0.00000000,
8.035580,-2.1688,-3.1660,15.8950,55.75410016,48.74004864,0.00000000,
8.045433,-2.1688,-3.1660,15.8950,55.75410016,48.74004864,0.00000000,
8.046103,-2.1688,-3.1660,15.8950,55.75410016,48.74004864,0.00000000,
8.046655,-0.2410,4.2243,3.1722,55.75410016,48.74004864,0.00000000,
8.054958,-0.2410,4.2243,3.1722,55.75410016,48.74004864,0.00000000,
8.064100,-0.2410,4.2243,3.1722,55.75410016,48.74004864,0.00000000,
8.064995,-0.2410,4.2243,3.1722,55.75410016,48.74004864,0.00000000,
8.074149,-0.2410,4.2243,3.1722,55.75410016,48.74004864,0.00000000,
8.083123,-0.2410,4.2243,3.1722,55.75410016,48.74004864,0.00000000,
8.084110,-0.2410,4.2243,3.1722,55.75410016,48.74004864,0.00000000,
8.084663,2.4233,4.7942,4.8848,55.75410016,48.74004864,0.00000000,
8.093241,2.4233,4.7942,4.8848,55.75410016,48.74004864,0.00000000,
8.103777,2.4233,4.7942,4.8848,55.75410016,48.74004864,0.00000000,
8.104707,2.4233,4.7942,4.8848,55.75410016,48.74004864,0.00000000,
8.112560,2.4233,4.7942,4.8848,55.75410016,48.74004864,0.00000000,
8.122284,2.4233,4.7942,4.8848,55.75410016,48.74004864,0.00000000,
8.123222,2.4233,4.7942,4.8848,55.75410016,48.74004864,0.00000000,
8.123838,4.0055,4.5871,-0.9065,55.75410016,48.74004864,0.00000000,
8.131415,4.0055,4.5871,-0.9065,55.75410016,48.74004864,0.00000000,
8.141918,4.0055,4.5871,-0.9065,55.75410016,48.74004864,0.00000000,
8.142624,4.0055,4.5871,-0.9065,55.75410016,48.74004864,0.00000000,
8.150545,4.0055,4.5871,-0.9065,55.75410016,48.74004864,0.00000000,
8.162126,4.0055,4.5871,-0.9065,55.75410016,48.74004864,0.00000000,
8.162842,4.0055,4.5871,-0.9065,55.75410016,48.74004864,0.00000000,
8.163376,8.5130,4.1951,-8.7982,55.75410016,48.74004864,0.00000000,
8.170444,8.5130,4.1951,-8.7982,55.75410016,48.74004864,0.00000000,
8.180251,8.5130,4.1951,-8.7982,55.75410016,48.74004864,0.00000000,
8.181193,8.5130,4.1951,-8.7982,55.75410016,48.74004864,0.00000000,
8.189519,8.5130,4.1951,-8.7982,55.75410016,48.74004864,0.00000000,
8.198868,8.5130,4.1951,-8.7982,55.75410016,48.74004864,0.00000000,
8.199817,7.6163,-1.6997,2.2975,55.75410016,48.74004864,0.00000000,
8.200886,7.6163,-1.6997,2.2975,55.75410016,48.74004864,0.00000000,
8.208902,7.6163,-1.6997,2.2975,55.75410016,48.74004864,0.00000000,
8.219356,7.6163,-1.6997,2.2975,55.75410016,48.74004864,0.00000000,
8.220268,7.6163,-1.6997,2.2975,55.75410016,48.74004864,0.00000000,
8.227919,7.6163,-1.6997,2.2975,55.75410016,48.74004864,0.00000000,
8.237707,7.6163,-1.6997,2.2975,55.75410016,48.74004864,0.00000000,
8.238628,7.6163,-1.6997,2.2975,55.75410016,48.74004864,0.00000000,
8.239204,2.4786,-3.2727,4.3785,55.75410016,48.74004864,0.00000000,
8.246660,2.4786,-3.2727,4.3785,55.75410016,48.74004864,0.00000000,
8.256935,2.4786,-3.2727,4.3785,55.75410016,48.74004864,0.00000000,
8.257695,2.4786,-3.2727,4.3785,55.75410016,48.74004864,0.00000000,
8.266216,2.4786,-3.2727,4.3785,55.75410016,48.74004864,0.00000000,
8.276156,2.4786,-3.2727,4.3785,55.75410016,48.74004864,0.00000000,
8.276909,2.4786,-3.2727,4.3785,55.75410016,48.74004864,0.00000000,
8.277466,1.3526,-2.7639,-3.9307,55.75410016,48.74004864,0.00000000,
8.285736,1.3526,-2.7639,-3.9307,55.75410016,48.74004864,0.00000000,
8.295570,1.3526,-2.7639,-3.9307,55.75410016,48.74004864,0.00000000,
8.296262,1.3526,-2.7639,-3.9307,55.75410016,48.74004864,0.00000000,
8.304745,1.3526,-2.7639,-3.9307,55.75410016,48.74004864,0.00000000,
8.314216,1.3526,-2.7639,-3.9307,55.75410016,48.74004864,0.00000000,
8.315175,1.3526,-2.7639,-3.9307,55.75410016,48.74004864,0.00000000,
8.315724,1.4994,-6.9447,1.9041,55.75410016,48.74004864,0.00000000,
8.324863,1.4994,-6.9447,1.9041,55.75410016,48.74004864,0.00000000,
8.335549,1.4994,-6.9447,1.9041,55.75410016,48.74004864,0.00000000,
8.336436,1.4994,-6.9447,1.9041,55.75410016,48.74004864,0.00000000,
8.343668,1.4994,-6.9447,1.9041,55.75410016,48.74004864,0.00000000,
8.353173,1.4994,-6.9447,1.9041,55.75410016,48.74004864,0.00000000,
8.354139,1.4994,-6.9447,1.9041,55.75410016,48.74004864,0.00000000,
8.354727,-4.9339,-4.1420,0.0656,55.75410016,48.74004864,0.00000000,
8.363116,-4.9339,-4.1420,0.0656,55.75410016,48.74004864,0.00000000,
8.372562,-4.9339,-4.1420,0.0656,55.75410016,48.74004864,0.00000000,
8.373310,-4.9339,-4.1420,0.0656,55.75410016,48.74004864,0.00000000,
8.381781,-4.9339,-4.1420,0.0656,55.75410016,48.74004864,0.00000000,
8.391634,-4.9339,-4.1420,0.0656,55.75410016,48.74004864,0.00000000,
8.392349,-4.9339,-4.1420,0.0656,55.75410016,48.74004864,0.00000000,
8.392871,-2.5518,-1.9515,-7.0956,55.75410016,48.74004864,0.00000000,
8.401352,-2.5518,-1.9515,-7.0956,55.75410016,48.74004864,0.00000000,
8.410966,-2.5518,-1.9515,-7.0956,55.75410016,48.74004864,0.00000000,
8.411678,-2.5518,-1.9515,-7.0956,55.75410016,48.74004864,0.00000000,
8.420567,-2.5518,-1.9515,-7.0956,55.75410016,48.74004864,0.00000000,
8.429404,-2.5518,-1.9515,-7.0956,55.75410016,48.74004864,0.00000000,
8.430420,-2.5518,-1.9515,-7.0956,55.75410016,48.74004864,0.00000000,
8.431068,1.4602,-4.1738,-3.6325,55.75410016,48.74004864,0.00000000,
8.439757,1.4602,-4.1738,-3.6325,55.75410016,48.74004864,0.00000000,
8.448642,1.4602,-4.1738,-3.6325,55.75410016,48.74004864,0.00000000,
8.449632,1.4602,-4.1738,-3.6325,55.75410016,48.74004864,0.00000000,
8.459212,1.4602,-4.1738,-3.6325,55.75410016,48.74004864,0.00000000,
8.468236,1.4602,-4.1738,-3.6325,55.75410016,48.74004864,0.00000000,
8.469181,1.4602,-4.1738,-3.6325,55.75410016,48.74004864,0.00000000,
8.469707,-6.3025,-0.1377,3.8503,55.75410016,48.74004864,0.00000000,
8.478377,-6.3025,-0.1377,3.8503,55.75410016,48.74004864,0.00000000,
8.488207,-6.3025,-0.1377,3.8503,55.75410016,48.74004864,0.00000000,
8.489134,-6.3025,-0.1377,3.8503,55.75410016,48.74004864,0.00000000,
8.497237,-6.3025,-0.1377,3.8503,55.75410016,48.74004864,0.00000000,
8.507067,-6.3025,-0.1377,3.8503,55.75410016,48.74004864,0.00000000,
8.507799,-6.3025,-0.1377,3.8503,55.75410016,48.74004864,0.00000000,
8.508351,-8.8025,2.1179,-10.0921,55.75410016,48.74004864,0.00000000,
8.517130,-8.8025,2.1179,-10.0921,55.75410016,48.74004864,0.00000000,
8.526141,-8.8025,2.1179,-10.0921,55.75410016,48.74004864,0.00000000,
8.527180,-8.8025,2.1179,-10.0921,55.75410016,48.74004864,0.00000000,
8.535993,-8.8025,2.1179,-10.0921,55.75410016,48.74004864,0.00000000,
8.546004,-8.8025,2.1179,-10.0921,55.75410016,48.74004864,0.00000000,
8.547234,-8.8025,2.1179,-10.0921,55.75410016,48.74004864,0.00000000,
8.548049,-1.9005,-3.5361,4.9169,55.75410016,48.74004864,0.00000000,
8.555115,-1.9005,-3.5361,4.9169,55.75410016,48.74004864,0.00000000,
8.566157,-1.9005,-3.5361,4.9169,55.75410016,48.74004864,0.00000000,
8.567004,-1.9005,-3.5361,4.9169,55.75410016,48.74004864,0.00000000,
8.574147,-1.9005,-3.5361,4.9169,55.75410016,48.74004864,0.00000000,
8.582917,-1.9005,-3.5361,4.9169,55.75410016,48.74004864,0.00000000,
8.583825,-1.9005,-3.5361,4.9169,55.75410016,48.74004864,0.00000000,
8.584340,-10.4017,2.8151,-3.8113,55.75410016,48.74004864,0.00000000,
8.593479,-10.4017,2.8151,-3.8113,55.75410016,48.74004864,0.00000000,
8.602265,-10.4017,2.8151,-3.8113,55.75410016,48.74004864,0.00000000,
8.603028,-10.4017,2.8151,-3.8113,55.75410016,48.74004864,0.00000000,
8.612575,-10.4017,2.8151,-3.8113,55.75410016,48.74004864,0.00000000,
8.622807,-10.4017,2.8151,-3.8113,55.75410016,48.74004864,0.00000000,
8.623746,-10.4017,2.8151,-3.8113,55.75410016,48.74004864,0.00000000,
8.624443,1.0099,-6.5092,2.0609,55.75410016,48.74004864,0.00000000,
8.632506,1.0099,-6.5092,2.0609,55.75410016,48.74004864,0.00000000,
8.642714,1.0099,-6.5092,2.0609,55.75410016,48.74004864,0.00000000,
8.643351,1.0099,-6.5092,2.0609,55.75410016,48.74004864,0.00000000,
8.651421,1.0099,-6.5092,2.0609,55.75410016,48.74004864,0.00000000,
8.661505,1.0099,-6.5092,2.0609,55.75410016,48.74004864,0.00000000,
8.662189,1.0099,-6.5092,2.0609,55.75410016,48.74004864,0.00000000,
8.662719,-0.3970,0.2249,13.8666,55.75410016,48.74004864,0.00000000,
8.670642,-0.3970,0.2249,13.8666,55.75410016,48.74004864,0.00000000,
8.680451,-0.3970,0.2249,13.8666,55.75410016,48.74004864,0.00000000,
8.681449,-0.3970,0.2249,13.8666,55.75410016,48.74004864,0.00000000,
8.689998,-0.3970,0.2249,13.8666,55.75410016,48.74004864,0.00000000,
8.698923,-0.3970,0.2249,13.8666,55.75410016,48.74004864,0.00000000,
8.699890,-0.3970,0.2249,13.8666,55.75410016,48.74004864,0.00000000,
8.700555,8.4266,2.7826,4.1124,55.75410016,48.74004864,0.00000000,
8.709399,8.4266,2.7826,4.1124,55.75410016,48.74004864,0.00000000,
8.718842,8.4266,2.7826,4.1124,55.75410016,48.74004864,0.00000000,
8.719757,8.4266,2.7826,4.1124,55.75410016,48.74004864,0.00000000,
8.728408,8.4266,2.7826,4.1124,55.75410016,48.74004864,0.00000000,
8.738183,8.4266,2.7826,4.1124,55.75410016,48.74004864,0.00000000,
8.739186,8.4266,2.7826,4.1124,55.75410016,48.74004864,0.00000000,
8.739737,11.6713,2.4281,-0.4558,55.75410016,48.74004864,0.00000000,
8.747493,11.6713,2.4281,-0.4558,55.75410016,48.74004864,0.00000000,
8.756619,11.6713,2.4281,-0.4558,55.75410016,48.74004864,0.00000000,
8.757479,11.6713,2.4281,-0.4558,55.75410016,48.74004864,0.00000000,
8.767667,11.6713,2.4281,-0.4558,55.75410016,48.74004864,0.00000000,
8.776195,11.6713,2.4281,-0.4558,55.75410016,48.74004864,0.00000000,
8.776834,11.6713,2.4281,-0.4558,55.75410016,48.74004864,0.00000000,
8.777326,7.0740,2.8364,-6.3340,55.75410016,48.74004864,0.00000000,
8.786485,7.0740,2.8364,-6.3340,55.75410016,48.74004864,0.00000000,
8.794839,7.0740,2.8364,-6.3340,55.75410016,48.74004864,0.00000000,
8.795499,7.0740,2.8364,-6.3340,55.75410016,48.74004864,0.00000000,
8.805131,7.0740,2.8364,-6.3340,55.75410016,48.74004864,0.00000000,
8.814269,7.0740,2.8364,-6.3340,55.75410016,48.74004864,0.00000000,
8.815175,7.0740,2.8364,-6.3340,55.75410016,48.74004864,0.00000000,
8.815733,5.7908,-1.1622,-1.4454,55.75410016,48.74004864,0.00000000,
8.824402,5.7908,-1.1622,-1.4454,55.75410016,48.74004864,0.00000000,
8.834210,5.7908,-1.1622,-1.4454,55.75410016,48.74004864,0.00000000,
8.835403,5.7908,-1.1622,-1.4454,55.75410016,48.74004864,0.00000000,
8.843820,5.7908,-1.1622,-1.4454,55.75410016,48.74004864,0.00000000,
8.852786,5.7908,-1.1622,-1.4454,55.75410016,48.74004864,0.00000000,
8.854453,5.7908,-1.1622,-1.4454,55.75410016,48.74004864,0.00000000,
8.854936,3.8697,-3.7151,5.5878,55.75410016,48.74004864,0.00000000,
8.862387,3.8697,-3.7151,5.5878,55.75410016,48.74004864,0.00000000,
8.872457,3.8697,-3.7151,5.5878,55.75410016,48.74004864,0.00000000,
8.873035,3.8697,-3.7151,5.5878,55.75410016,48.74004864,0.00000000,
8.881783,3.8697,-3.7151,5.5878,55.75410016,48.74004864,0.00000000,
8.892552,3.8697,-3.7151,5.5878,55.75410016,48.74004864,0.00000000,
8.893218,3.8697,-3.7151,5.5878,55.75410016,48.74004864,0.00000000,
8.893807,0.0687,-0.5650,-2.6802,55.75410016,48.74004864,0.00000000,
8.901398,0.0687,-0.5650,-2.6802,55.75410016,48.74004864,0.00000000,
8.911905,0.0687,-0.5650,-2.6802,55.75410016,48.74004864,0.00000000,
8.912718,0.0687,-0.5650,-2.6802,55.75410016,48.74004864,0.00000000,
8.921416,0.0687,-0.5650,-2.6802,55.75410016,48.74004864,0.00000000,
8.929547,0.0687,-0.5650,-2.6802,55.75410016,48.74004864,0.00000000,
8.930578,0.0687,-0.5650,-2.6802,55.75410016,48.74004864,0.00000000,
8.931213,-3.0255,-4.7796,7.0827,55.75410016,48.74004864,0.00000000,
8.940464,-3.0255,-4.7796,7.0827,55.75410016,48.74004864,0.00000000,
8.948786,-3.0255,-4.7796,7.0827,55.75410016,48.74004864,0.00000000,
8.949785,-3.0255,-4.7796,7.0827,55.75410016,48.74004864,0.00000000,
8.959529,-3.0255,-4.7796,7.0827,55.75410016,48.74004864,0.00000000,
8.968007,-3.0255,-4.7796,7.0827,55.75410016,48.74004864,0.00000000,
8.968947,-3.0255,-4.7796,7.0827,55.75410016,48.74004864,0.00000000,
8.969480,-6.8211,-2.9650,6.5296,55.75410016,48.74004864,0.00000000,
8.978622,-6.8211,-2.9650,6.5296,55.75410016,48.74004864,0.00000000,
8.988270,-6.8211,-2.9650,6.5296,55.75410016,48.74004864,0.00000000,
8.988950,-6.8211,-2.9650,6.5296,55.75410016,48.74004864,0.00000000,
8.997721,-6.8211,-2.9650,6.5296,55.75410016,48.74004864,0.00000000,
9.007972,-6.8211,-2.9650,6.5296,55.75410016,48.74004864,0.00000000,
9.008673,-6.8211,-2.9650,6.5296,55.75410016,48.74004864,0.00000000,
9.009196,0.3473,-2.4756,-8.9649,55.75410016,48.74004864,0.00000000,
9.017444,0.3473,-2.4756,-8.9649,55.75410016,48.74004864,0.00000000,
9.026772,0.3473,-2.4756,-8.9649,55.75410016,48.74004864,0.00000000,
9.027512,0.3473,-2.4756,-8.9649,55.75410016,48.74004864,0.00000000,
9.036443,0.3473,-2.4756,-8.9649,55.75410016,48.74004864,0.00000000,
9.045575,0.3473,-2.4756,-8.9649,55.75410016,48.74004864,0.00000000,
9.046489,0.3473,-2.4756,-8.9649,55.75410016,48.74004864,0.00000000,
9.047207,1.9881,-5.2963,1.3345,55.75410016,48.74004864,0.00000000,
9.056078,1.9881,-5.2963,1.3345,55.75410016,48.74004864,0.00000000,
9.064296,1.9881,-5.2963,1.3345,55.75410016,48.74004864,0.00000000,
9.065256,1.9881,-5.2963,1.3345,55.75410016,48.74004864,0.00000000,
9.074898,1.9881,-5.2963,1.3345,55.75410016,48.74004864,0.00000000,
9.084506,1.9881,-5.2963,1.3345,55.75410016,48.74004864,0.00000000,
9.085471,1.9881,-5.2963,1.3345,55.75410016,48.74004864,0.00000000,
9.086028,-8.4202,-0.0924,-5.3844,55.75410016,48.74004864,0.00000000,
9.093359,-8.4202,-0.0924,-5.3844,55.75410016,48.74004864,0.00000000,
9.103087,-8.4202,-0.0924,-5.3844,55.75410016,48.74004864,0.00000000,
9.104013,-8.4202,-0.0924,-5.3844,55.75410016,48.74004864,0.00000000,
9.112473,-8.4202,-0.0924,-5.3844,55.75410016,48.74004864,0.00000000,
9.122884,-8.4202,-0.0924,-5.3844,55.75410016,48.74004864,0.00000000,
9.123565,-8.4202,-0.0924,-5.3844,55.75410016,48.74004864,0.00000000,
9.124098,-4.6028,-0.2987,-7.2820,55.75410016,48.74004864,0.00000000,
9.132294,-4.6028,-0.2987,-7.2820,55.75410016,48.74004864,0.00000000,
9.141952,-4.6028,-0.2987,-7.2820,55.75410016,48.74004864,0.00000000,
9.142597,-4.6028,-0.2987,-7.2820,55.75410016,48.74004864,0.00000000,
9.151710,-4.6028,-0.2987,-7.2820,55.75410016,48.74004864,0.00000000,
9.161459,-4.6028,-0.2987,-7.2820,55.75410016,48.74004864,0.00000000,
9.162274,-4.6028,-0.2987,-7.2820,55.75410016,48.74004864,0.00000000,
9.162850,-2.6754,0.5814,-0.8206,55.75410016,48.74004864,0.00000000,
9.171378,-2.6754,0.5814,-0.8206,55.75410016,48.74004864,0.00000000,
9.179794,-2.6754,0.5814,-0.8206,55.75410016,48.74004864,0.00000000,
9.180659,-2.6754,0.5814,-0.8206,55.75410016,48.74004864,0.00000000,
9.189987,-2.6754,0.5814,-0.8206,55.75410016,48.74004864,0.00000000,
9.199699,-2.6754,0.5814,-0.8206,55.75410016,48.74004864,0.00000000,
9.200611,-0.6714,0.7517,0.2586,55.75410016,48.74004864,0.00000000,
9.201532,-0.6714,0.7517,0.2586,55.75410016,48.74004864,0.00000000,
9.209377,-0.6714,0.7517,0.2586,55.75410016,48.74004864,0.00000000,
9.218837,-0.6714,0.7517,0.2586,55.75410016,48.74004864,0.00000000,
9.219708,-0.6714,0.7517,0.2586,55.75410016,48.74004864,0.00000000,
9.228152,-0.6714,0.7517,0.2586,55.75410016,48.74004864,0.00000000,
9.238287,-0.6714,0.7517,0.2586,55.75410016,48.74004864,0.00000000,
9.238970,-0.6714,0.7517,0.2586,55.75410016,48.74004864,0.00000000,
9.239520,2.3188,-2.4679,9.8727,55.75410016,48.74004864,0.00000000,
9.247294,2.3188,-2.4679,9.8727,55.75410016,48.74004864,0.00000000,
9.257870,2.3188,-2.4679,9.8727,55.75410016,48.74004864,0.00000000,
9.258581,2.3188,-2.4679,9.8727,55.75410016,48.74004864,0.00000000,
9.266818,2.3188,-2.4679,9.8727,55.75410016,48.74004864,0.00000000,
9.276968,2.3188,-2.4679,9.8727,55.75410016,48.74004864,0.00000000,
9.277734,2.3188,-2.4679,9.8727,55.75410016,48.74004864,0.00000000,
9.278284,1.9094,0.7447,6.6002,55.75410016,48.74004864,0.00000000,
9.287340,1.9094,0.7447,6.6002,55.75410016,48.74004864,0.00000000,
9.295635,1.9094,0.7447,6.6002,55.75410016,48.74004864,0.00000000,
9.296604,1.9094,0.7447,6.6002,55.75410016,48.74004864,0.00000000,
9.305915,1.9094,0.7447,6.6002,55.75410016,48.74004864,0.00000000,
9.314855,2.5067,2.8656,-1.7070,55.75410016,48.74004864,0.00000000,
9.316163,2.5067,2.8656,-1.7070,55.75410016,48.74004864,0.00000000,
9.316711,2.5067,2.8656,-1.7070,55.75410016,48.74004864,0.00000000,
9.325187,2.5067,2.8656,-1.7070,55.75410016,48.74004864,0.00000000,
9.334893,2.5067,2.8656,-1.7070,55.75410016,48.74004864,0.00000000,
9.335858,2.5067,2.8656,-1.7070,55.75410016,48.74004864,0.00000000,
9.344691,2.5067,2.8656,-1.7070,55.75410016,48.74004864,0.00000000,
9.353886,2.5067,2.8656,-1.7070,55.75410016,48.74004864,0.00000000,
9.354583,5.4139,1.0506,-1.5372,55.75410016,48.74004864,0.00000000,
9.355422,5.4139,1.0506,-1.5372,55.75410016,48.74004864,0.00000000,
9.363534,5.4139,1.0506,-1.5372,55.75410016,48.74004864,0.00000000,
9.373279,5.4139,1.0506,-1.5372,55.75410016,48.74004864,0.00000000,
9.374021,5.4139,1.0506,-1.5372,55.75410016,48.74004864,0.00000000,
9.382109,5.4139,1.0506,-1.5372,55.75410016,48.74004864,0.00000000,
9.392117,5.4139,1.0506,-1.5372,55.75410016,48.74004864,0.00000000,
9.392828,5.4139,1.0506,-1.5372,55.75410016,48.74004864,0.00000000,
9.393444,2.3191,1.7481,-12.5111,55.75410016,48.74004864,0.00000000,
9.401884,2.3191,1.7481,-12.5111,55.75410016,48.74004864,0.00000000,
9.412485,2.3191,1.7481,-12.5111,55.75410016,48.74004864,0.00000000,
9.413499,2.3191,1.7481,-12.5111,55.75410016,48.74004864,0.00000000,
9.420939,2.3191,1.7481,-12.5111,55.75410016,48.74004864,0.00000000,
9.430673,2.3191,1.7481,-12.5111,55.75410016,48.74004864,0.00000000,
9.431810,2.3191,1.7481,-12.5111,55.75410016,48.74004864,0.00000000,
9.432610,5.3455,-3.6454,5.2249,55.75410016,48.74004864,0.00000000,
9.441102,5.3455,-3.6454,5.2249,55.75410016,48.74004864,0.00000000,
9.449823,5.3455,-3.6454,5.2249,55.75410016,48.74004864,0.00000000,
9.450612,5.3455,-3.6454,5.2249,55.75410016,48.74004864,0.00000000,
9.459646,5.3455,-3.6454,5.2249,55.75410016,48.74004864,0.00000000,
9.469141,5.3455,-3.6454,5.2249,55.75410016,48.74004864,0.00000000,
9.469852,5.3455,-3.6454,5.2249,55.75410016,48.74004864,0.00000000,
9.470340,-1.9753,-0.6699,-1.5429,55.75410016,48.74004864,0.00000000,
9.478203,-1.9753,-0.6699,-1.5429,55.75410016,48.74004864,0.00000000,
9.488651,-1.9753,-0.6699,-1.5429,55.75410016,48.74004864,0.00000000,
9.489357,-1.9753,-0.6699,-1.5429,55.75410016,48.74004864,0.00000000,
9.497528,-1.9753,-0.6699,-1.5429,55.75410016,48.74004864,0.00000000,
9.507836,4.4204,-1.5864,-2.0598,55.75410016,48.74004864,0.00000000,
9.508966,4.4204,-1.5864,-2.0598,55.75410016,48.74004864,0.00000000,
9.509533,4.4204,-1.5864,-2.0598,55.75410016,48.74004864,0.00000000,
9.517627,4.4204,-1.5864,-2.0598,55.75410016,48.74004864,0.00000000,
9.527575,4.4204,-1.5864,-2.0598,55.75410016,48.74004864,0.00000000,
9.528478,4.4204,-1.5864,-2.0598,55.75410016,48.74004864,0.00000000,
9.536535,4.4204,-1.5864,-2.0598,55.75410016,48.74004864,0.00000000,
9.546549,4.4204,-1.5864,-2.0598,55.75410016,48.74004864,0.00000000,
9.547685,4.4204,-1.5864,-2.0598,55.75410016,48.74004864,0.00000000,
9.548259,-0.7342,-3.2682,4.7061,55.75410016,48.74004864,0.00000000,
9.555815,-0.7342,-3.2682,4.7061,55.75410016,48.74004864,0.00000000,
9.566642,-0.7342,-3.2682,4.7061,55.75410016,48.74004864,0.00000000,
9.567658,-0.7342,-3.2682,4.7061,55.75410016,48.74004864,0.00000000,
9.575366,-0.7342,-3.2682,4.7061,55.75410016,48.74004864,0.00000000,
9.584742,-0.7342,-3.2682,4.7061,55.75410016,48.74004864,0.00000000,
9.585688,-1.5617,-0.9071,1.9857,55.75410016,48.74004864,0.00000000,
9.586620,-1.5617,-0.9071,1.9857,55.75410016,48.74004864,0.00000000,
9.594915,-1.5617,-0.9071,1.9857,55.75410016,48.74004864,0.00000000,
9.604304,-1.5617,-0.9071,1.9857,55.75410016,48.74004864,0.00000000,
9.605014,-1.5617,-0.9071,1.9857,55.75410016,48.74004864,0.00000000,
9.613505,-1.5617,-0.9071,1.9857,55.75410016,48.74004864,0.00000000,
9.623513,-1.5617,-0.9071,1.9857,55.75410016,48.74004864,0.00000000,
9.624211,-1.5617,-0.9071,1.9857,55.75410016,48.74004864,0.00000000,
9.624752,-0.6307,-0.8062,-1.8409,55.75410016,48.74004864,0.00000000,
9.633031,-0.6307,-0.8062,-1.8409,55.75410016,48.74004864,0.00000000,
9.642815,-0.6307,-0.8062,-1.8409,55.75410016,48.74004864,0.00000000,
9.643548,-0.6307,-0.8062,-1.8409,55.75410016,48.74004864,0.00000000,
9.651678,-0.6307,-0.8062,-1.8409,55.75410016,48.74004864,0.00000000,
9.661393,-0.6307,-0.8062,-1.8409,55.75410016,48.74004864,0.00000000,
9.662288,-0.6307,-0.8062,-1.8409,55.75410016,48.74004864,0.00000000,
9.662759,1.8243,-3.7231,0.9872,55.75410016,48.74004864,0.00000000,
9.671340,1.8243,-3.7231,0.9872,55.75410016,48.74004864,0.00000000,
9.683326,1.8243,-3.7231,0.9872,55.75410016,48.74004864,0.00000000,
9.684311,1.8243,-3.7231,0.9872,55.75410016,48.74004864,0.00000000,
9.690855,1.8243,-3.7231,0.9872,55.75410016,48.74004864,0.00000000,
9.700101,1.8243,-3.7231,0.9872,55.75410016,48.74004864,0.00000000,
9.700993,1.8243,-3.7231,0.9872,55.75410016,48.74004864,0.00000000,
9.701530,-7.9602,-1.0298,-6.2690,55.75410016,48.74004864,0.00000000,
9.709227,-7.9602,-1.0298,-6.2690,55.75410016,48.74004864,0.00000000,
9.719524,-7.9602,-1.0298,-6.2690,55.75410016,48.74004864,0.00000000,
9.720463,-7.9602,-1.0298,-6.2690,55.75410016,48.74004864,0.00000000,
9.728991,-7.9602,-1.0298,-6.2690,55.75410016,48.74004864,0.00000000,
9.738621,-7.9602,-1.0298,-6.2690,55.75410016,48.74004864,0.00000000,
9.739272,-7.9602,-1.0298,-6.2690,55.75410016,48.74004864,0.00000000,
9.739808,-7.8023,-0.0290,-2.3151,55.75410016,48.74004864,0.00000000,
9.748286,-7.8023,-0.0290,-2.3151,55.75410016,48.74004864,0.00000000,
9.757866,-7.8023,-0.0290,-2.3151,55.75410016,48.74004864,0.00000000,
9.758509,-7.8023,-0.0290,-2.3151,55.75410016,48.74004864,0.00000000,
9.767621,-7.8023,-0.0290,-2.3151,55.75410016,48.74004864,0.00000000,
9.777563,-7.8023,-0.0290,-2.3151,55.75410016,48.74004864,0.00000000,
9.778489,-7.8023,-0.0290,-2.3151,55.75410016,48.74004864,0.00000000,
9.779095,-3.8397,-1.9243,-3.5414,55.75410016,48.74004864,0.00000000,
9.786937,-3.8397,-1.9243,-3.5414,55.75410016,48.74004864,0.00000000,
9.796163,-3.8397,-1.9243,-3.5414,55.75410016,48.74004864,0.00000000,
9.797192,-3.8397,-1.9243,-3.5414,55.75410016,48.74004864,0.00000000,
