
time,ax,ay,az,Latitude,Longitude,Speed (m/s),
0.023983,0.0000,0.0000,0.0000,0.00000000,0.00000000,0.00000000,
0.041157,0.0000,0.0000,0.0000,55.75020534,48.74102788,0.00000000,
0.060747,0.0000,0.0000,0.0000,55.75020534,48.74102788,0.00000000,
0.061258,0.0000,0.0000,0.0000,55.75020534,48.74102788,0.00000000,
0.081102,0.0000,0.0000,0.0000,55.75020534,48.74102788,0.00000000,
0.081461,0.0000,0.0000,0.0000,55.75020528,48.74102782,0.00000000,
0.099120,0.0000,0.0000,0.0000,55.75020528,48.74102782,0.00000000,
0.099536,0.0000,0.0000,0.0000,55.75020528,48.74102782,0.00000000,
0.118579,0.0000,0.0000,0.0000,55.75020528,48.74102782,0.00000000,
0.119013,0.0000,0.0000,0.0000,55.75020528,48.74102782,0.00000000,
0.137935,0.0000,0.0000,0.0000,55.75020528,48.74102782,0.00000000,
0.138393,0.0000,0.0000,0.0000,55.75020528,48.74102782,0.00000000,
0.157054,0.1990,-0.5978,-0.1538,55.75020528,48.74102782,0.00000000,
0.157752,0.1990,-0.5978,-0.1538,55.75020528,48.74102782,0.00000000,
0.158013,0.1990,-0.5978,-0.1538,55.75020528,48.74102782,0.00000000,
0.176042,0.1990,-0.5978,-0.1538,55.75020528,48.74102782,0.00000000,
0.176558,0.1990,-0.5978,-0.1538,55.75020528,48.74102782,0.00000000,
0.194878,0.1990,-0.5978,-0.1538,55.75020528,48.74102782,0.00000000,
0.195370,0.1990,-0.5978,-0.1538,55.75020528,48.74102782,0.00000000,
0.195700,0.5568,-0.9198,0.3427,55.75020528,48.74102782,0.00000000,
0.213855,0.5568,-0.9198,0.3427,55.75020528,48.74102782,0.00000000,
0.214316,0.5568,-0.9198,0.3427,55.75020528,48.74102782,0.00000000,
0.233979,0.5568,-0.9198,0.3427,55.75020528,48.74102782,0.00000000,
0.234428,0.5568,-0.9198,0.3427,55.75020528,48.74102782,0.00000000,
0.234711,0.8445,-0.5429,0.0484,55.75020528,48.74102782,0.00000000,
0.252774,0.8445,-0.5429,0.0484,55.75020528,48.74102782,0.00000000,
0.253301,0.8445,-0.5429,0.0484,55.75020528,48.74102782,0.00000000,
0.272324,0.2535,-0.3142,-1.1735,55.75020528,48.74102782,0.00000000,
0.273154,0.2535,-0.3142,-1.1735,55.75020528,48.74102782,0.00000000,
0.273468,0.2535,-0.3142,-1.1735,55.75020528,48.74102782,0.00000000,
0.291519,0.2535,-0.3142,-1.1735,55.75020528,48.74102782,0.00000000,
0.292012,0.2535,-0.3142,-1.1735,55.75020528,48.74102782,0.00000000,
0.310264,0.2535,-0.3142,-1.1735,55.75020528,48.74102782,0.00000000,
0.310717,0.2535,-0.3142,-1.1735,55.75020528,48.74102782,0.00000000,
0.310984,0.1698,-0.4330,0.0800,55.75020528,48.74102782,0.00000000,
0.329924,0.1698,-0.4330,0.0800,55.75020528,48.74102782,0.00000000,
0.330393,0.1698,-0.4330,0.0800,55.75020528,48.74102782,0.00000000,
0.349334,0.1698,-0.4330,0.0800,55.75020528,48.74102782,0.00000000,
0.349907,0.1698,-0.4330,0.0800,55.75020528,48.74102782,0.00000000,
0.350399,-0.0143,-0.5899,0.0221,55.75020528,48.74102782,0.00000000,
0.367812,-0.0143,-0.5899,0.0221,55.75020528,48.74102782,0.00000000,
0.368304,-0.0143,-0.5899,0.0221,55.75020528,48.74102782,0.00000000,
0.387742,-0.2405,-0.2361,-0.2194,55.75020528,48.74102782,0.00000000,
0.388531,-0.2405,-0.2361,-0.2194,55.75020528,48.74102782,0.00000000,
0.388849,-0.2405,-0.2361,-0.2194,55.75020528,48.74102782,0.00000000,
0.407420,-0.2405,-0.2361,-0.2194,55.75020528,48.74102782,0.00000000,
0.408046,-0.2405,-0.2361,-0.2194,55.75020528,48.74102782,0.00000000,
0.425966,-0.2405,-0.2361,-0.2194,55.75020528,48.74102782,0.00000000,
0.426366,-0.2405,-0.2361,-0.2194,55.75020528,48.74102782,0.00000000,
0.426608,0.2407,-0.8337,0.6206,55.75020528,48.74102782,0.00000000,
0.445006,0.2407,-0.8337,0.6206,55.75020528,48.74102782,0.00000000,
0.445480,0.2407,-0.8337,0.6206,55.75020528,48.74102782,0.00000000,
0.463985,-0.5656,-0.3315,0.5455,55.75020528,48.74102782,0.00000000,
0.464721,-0.5656,-0.3315,0.5455,55.75020528,48.74102782,0.00000000,
0.465031,-0.5656,-0.3315,0.5455,55.75020528,48.74102782,0.00000000,
0.483553,-0.5656,-0.3315,0.5455,55.75020528,48.74102782,0.00000000,
0.484010,-0.5656,-0.3315,0.5455,55.75020528,48.74102782,0.00000000,
0.503135,-0.5656,-0.3315,0.5455,55.75020528,48.74102782,0.00000000,
0.503587,-0.5656,-0.3315,0.5455,55.75020528,48.74102782,0.00000000,
0.503862,0.3967,-0.3356,0.8827,55.75020528,48.74102782,0.00000000,
0.522528,0.3967,-0.3356,0.8827,55.75020528,48.74102782,0.00000000,
0.523077,0.3967,-0.3356,0.8827,55.75020528,48.74102782,0.00000000,
0.542029,0.3967,-0.3356,0.8827,55.75020528,48.74102782,0.00000000,
0.542563,0.3967,-0.3356,0.8827,55.75020528,48.74102782,0.00000000,
0.542859,-0.0175,0.8574,-3.0785,55.75020528,48.74102782,0.00000000,
0.560465,-0.0175,0.8574,-3.0785,55.75020528,48.74102782,0.00000000,
0.560957,-0.0175,0.8574,-3.0785,55.75020528,48.74102782,0.00000000,
0.581079,-0.0175,0.8574,-3.0785,55.75020528,48.74102782,0.00000000,
0.581631,-0.0175,0.8574,-3.0785,55.75020528,48.74102782,0.00000000,
0.581955,-1.4710,0.1094,-0.3013,55.75020528,48.74102782,0.00000000,
0.599988,-1.4710,0.1094,-0.3013,55.75020528,48.74102782,0.00000000,
0.600503,-1.4710,0.1094,-0.3013,55.75020528,48.74102782,0.00000000,
0.618457,-1.4710,0.1094,-0.3013,55.75020528,48.74102782,0.00000000,
0.618940,-1.4710,0.1094,-0.3013,55.75020528,48.74102782,0.00000000,
0.619228,0.3971,-0.6343,2.6105,55.75020528,48.74102782,0.00000000,
0.638694,0.3971,-0.6343,2.6105,55.75020528,48.74102782,0.00000000,
0.639233,0.3971,-0.6343,2.6105,55.75020528,48.74102782,0.00000000,
0.657560,0.3971,-0.6343,2.6105,55.75020528,48.74102782,0.00000000,
0.658108,0.3971,-0.6343,2.6105,55.75020528,48.74102782,0.00000000,
0.658432,-0.3477,0.8112,-0.9576,55.75020528,48.74102782,0.00000000,
0.676713,-0.3477,0.8112,-0.9576,55.75020528,48.74102782,0.00000000,
0.677242,-0.3477,0.8112,-0.9576,55.75020528,48.74102782,0.00000000,
0.695082,-0.3477,0.8112,-0.9576,55.75020528,48.74102782,0.00000000,
0.695612,-0.3662,0.9414,-1.4427,55.75020528,48.74102782,0.00000000,
0.696361,-0.3662,0.9414,-1.4427,55.75020528,48.74102782,0.00000000,
0.714551,-0.3662,0.9414,-1.4427,55.75020528,48.74102782,0.00000000,
0.715080,-0.3662,0.9414,-1.4427,55.75020528,48.74102782,0.00000000,
0.733500,-0.3662,0.9414,-1.4427,55.75020528,48.74102782,0.00000000,
0.733894,-0.3662,0.9414,-1.4427,55.75020528,48.74102782,0.00000000,
0.734158,-1.3144,1.4348,-2.5672,55.75020528,48.74102782,0.00000000,
0.754625,-1.3144,1.4348,-2.5672,55.75020528,48.74102782,0.00000000,
0.755148,-1.3144,1.4348,-2.5672,55.75020528,48.74102782,0.00000000,
0.772856,-0.9954,-0.1282,-0.4536,55.75020528,48.74102782,0.00000000,
0.773766,-0.9954,-0.1282,-0.4536,55.75020528,48.74102782,0.00000000,
0.774074,-0.9954,-0.1282,-0.4536,55.75020528,48.74102782,0.00000000,
0.792391,-0.9954,-0.1282,-0.4536,55.75020528,48.74102782,0.00000000,
0.792913,-0.9954,-0.1282,-0.4536,55.75020528,48.74102782,0.00000000,
0.811024,-0.9954,-0.1282,-0.4536,55.75020528,48.74102782,0.00000000,
0.811563,-0.9954,-0.1282,-0.4536,55.75020528,48.74102782,0.00000000,
0.811901,-0.0204,0.0359,0.7213,55.75020528,48.74102782,0.00000000,
0.829826,-0.0204,0.0359,0.7213,55.75020528,48.74102782,0.00000000,
0.830374,-0.0204,0.0359,0.7213,55.75020528,48.74102782,0.00000000,
0.850248,-0.5649,3.3586,-2.0080,55.75020528,48.74102782,0.00000000,
0.851027,-0.5649,3.3586,-2.0080,55.75020528,48.74102782,0.00000000,
0.851347,-0.5649,3.3586,-2.0080,55.75020528,48.74102782,0.00000000,
0.868350,-0.5649,3.3586,-2.0080,55.75020528,48.74102782,0.00000000,
0.868881,-0.5649,3.3586,-2.0080,55.75020528,48.74102782,0.00000000,
0.888718,-0.5649,3.3586,-2.0080,55.75020528,48.74102782,0.00000000,
0.889248,-0.5649,3.3586,-2.0080,55.75020528,48.74102782,0.00000000,
0.889562,-0.4605,4.1295,-0.6141,55.75020528,48.74102782,0.00000000,
0.907633,-0.4605,4.1295,-0.6141,55.75020528,48.74102782,0.00000000,
0.908180,-0.4605,4.1295,-0.6141,55.75020528,48.74102782,0.00000000,
0.926265,-0.4605,4.1295,-0.6141,55.75020528,48.74102782,0.00000000,
0.926863,-0.4605,4.1295,-0.6141,55.75020528,48.74102782,0.00000000,
0.928466,-1.6801,3.8162,0.2340,55.75020528,48.74102782,0.00000000,
0.945220,-1.6801,3.8162,0.2340,55.75020528,48.74102782,0.00000000,
0.945802,-1.6801,3.8162,0.2340,55.75020528,48.74102782,0.00000000,
0.964511,-0.3809,2.1620,0.5522,55.75020528,48.74102782,0.00000000,
0.965362,-0.3809,2.1620,0.5522,55.75020528,48.74102782,0.00000000,
0.965712,-0.3809,2.1620,0.5522,55.75020528,48.74102782,0.00000000,
0.984679,-0.3809,2.1620,0.5522,55.75020528,48.74102782,0.00000000,
0.985157,-0.3809,2.1620,0.5522,55.75020528,48.74102782,0.00000000,
1.003667,-0.5981,2.0480,-1.1051,55.75020528,48.74102782,0.00000000,
1.004481,-0.5981,2.0480,-1.1051,55.75020528,48.74102782,0.00000000,
1.004786,-0.5981,2.0480,-1.1051,55.75020528,48.74102782,0.00000000,
1.023005,-0.5981,2.0480,-1.1051,55.75020528,48.74102782,0.00000000,
1.023532,-0.5981,2.0480,-1.1051,55.75020528,48.74102782,0.00000000,
1.042082,-0.5981,2.0480,-1.1051,55.75020528,48.74102782,0.00000000,
1.042628,0.1255,2.8343,-2.4163,55.75020528,48.74102782,0.00000000,
1.043289,0.1255,2.8343,-2.4163,55.75020528,48.74102782,0.00000000,
1.060553,0.1255,2.8343,-2.4163,55.75020528,48.74102782,0.00000000,
1.061059,0.1255,2.8343,-2.4163,55.75020528,48.74102782,0.00000000,
1.080425,0.1255,2.8343,-2.4163,55.75020528,48.74102782,0.00000000,
1.080952,0.1255,2.8343,-2.4163,55.75020528,48.74102782,0.00000000,
1.081268,0.8112,3.7245,-2.1476,55.75020528,48.74102782,0.00000000,
1.099911,0.8112,3.7245,-2.1476,55.75020528,48.74102782,0.00000000,
1.100383,0.8112,3.7245,-2.1476,55.75020528,48.74102782,0.00000000,
1.118273,0.8112,3.7245,-2.1476,55.75020528,48.74102782,0.00000000,
1.118715,0.8112,3.7245,-2.1476,55.75020528,48.74102782,0.00000000,
1.118984,0.4622,4.2673,0.1656,55.75020528,48.74102782,0.00000000,
1.138335,0.4622,4.2673,0.1656,55.75020528,48.74102782,0.00000000,
1.138833,0.4622,4.2673,0.1656,55.75020528,48.74102782,0.00000000,
1.157292,0.4622,4.2673,0.1656,55.75020528,48.74102782,0.00000000,
1.157779,0.4622,4.2673,0.1656,55.75020528,48.74102782,0.00000000,
1.158091,1.1666,2.1837,1.0252,55.75020528,48.74102782,0.00000000,
1.176738,1.1666,2.1837,1.0252,55.75020528,48.74102782,0.00000000,
1.177263,1.1666,2.1837,1.0252,55.75020528,48.74102782,0.00000000,
1.195760,1.1666,2.1837,1.0252,55.75020528,48.74102782,0.00000000,
1.196360,0.4255,0.9739,2.3669,55.75020528,48.74102782,0.00000000,
1.197031,0.4255,0.9739,2.3669,55.75020528,48.74102782,0.00000000,
1.215490,0.4255,0.9739,2.3669,55.75020528,48.74102782,0.00000000,
1.216011,0.4255,0.9739,2.3669,55.75020528,48.74102782,0.00000000,
1.233823,-1.6251,1.6829,0.6879,55.75020528,48.74102782,0.00000000,
1.234681,-1.6251,1.6829,0.6879,55.75020528,48.74102782,0.00000000,
1.235008,-1.6251,1.6829,0.6879,55.75020528,48.74102782,0.00000000,
1.253969,-1.6251,1.6829,0.6879,55.75020528,48.74102782,0.00000000,
1.254512,-1.6251,1.6829,0.6879,55.75020528,48.74102782,0.00000000,
1.272922,-1.6251,1.6829,0.6879,55.75020528,48.74102782,0.00000000,
1.273500,-1.6251,1.6829,0.6879,55.75020528,48.74102782,0.00000000,
1.273819,1.0496,-0.0893,0.3049,55.75020528,48.74102782,0.00000000,
1.292052,1.0496,-0.0893,0.3049,55.75020528,48.74102782,0.00000000,
1.292592,1.0496,-0.0893,0.3049,55.75020528,48.74102782,0.00000000,
1.310511,1.0496,-0.0893,0.3049,55.75020528,48.74102782,0.00000000,
1.311056,1.0496,-0.0893,0.3049,55.75020528,48.74102782,0.00000000,
1.311412,-0.3719,1.6793,-0.5884,55.75020528,48.74102782,0.00000000,
1.329874,-0.3719,1.6793,-0.5884,55.75020528,48.74102782,0.00000000,
1.330378,-0.3719,1.6793,-0.5884,55.75020528,48.74102782,0.00000000,
1.349447,-0.3719,1.6793,-0.5884,55.75020528,48.74102782,0.00000000,
1.350038,-0.3719,1.6793,-0.5884,55.75020528,48.74102782,0.00000000,
1.350358,1.4848,1.9174,-0.4274,55.75020528,48.74102782,0.00000000,
1.369105,1.4848,1.9174,-0.4274,55.75020528,48.74102782,0.00000000,
1.369553,1.4848,1.9174,-0.4274,55.75020528,48.74102782,0.00000000,
1.388080,1.4848,1.9174,-0.4274,55.75020528,48.74102782,0.00000000,
1.388559,1.4848,1.9174,-0.4274,55.75020528,48.74102782,0.00000000,
1.388857,1.1887,1.7867,4.1441,55.75020528,48.74102782,0.00000000,
1.408067,1.1887,1.7867,4.1441,55.75020528,48.74102782,0.00000000,
1.408942,1.1887,1.7867,4.1441,55.75020528,48.74102782,0.00000000,
1.426902,1.1887,1.7867,4.1441,55.75020528,48.74102782,0.00000000,
1.427690,1.1887,1.7867,4.1441,55.75020528,48.74102782,0.00000000,
1.428327,2.6790,0.4360,0.4804,55.75020528,48.74102782,0.00000000,
1.446546,2.6790,0.4360,0.4804,55.75020528,48.74102782,0.00000000,
1.447401,2.6790,0.4360,0.4804,55.75020528,48.74102782,0.00000000,
1.465960,2.6790,0.4360,0.4804,55.75020528,48.74102782,0.00000000,
1.466750,2.6790,0.4360,0.4804,55.75020528,48.74102782,0.00000000,
1.467259,-0.1978,-0.0578,-3.0497,55.75020528,48.74102782,0.00000000,
1.485136,-0.1978,-0.0578,-3.0497,55.75020528,48.74102782,0.00000000,
1.485865,-0.1978,-0.0578,-3.0497,55.75020528,48.74102782,0.00000000,
1.504521,-0.1978,-0.0578,-3.0497,55.75020528,48.74102782,0.00000000,
1.505257,0.3291,-2.8877,-0.5188,55.75020528,48.74102782,0.00000000,
1.506163,0.3291,-2.8877,-0.5188,55.75020528,48.74102782,0.00000000,
1.524110,0.3291,-2.8877,-0.5188,55.75020528,48.74102782,0.00000000,
1.524884,0.3291,-2.8877,-0.5188,55.75020528,48.74102782,0.00000000,
1.542423,0.3291,-2.8877,-0.5188,55.75020528,48.74102782,0.00000000,
1.543307,0.3291,-2.8877,-0.5188,55.75020528,48.74102782,0.00000000,
1.543857,-2.7125,-0.6983,-4.8549,55.75020528,48.74102782,0.00000000,
1.561298,-2.7125,-0.6983,-4.8549,55.75020528,48.74102782,0.00000000,
1.562189,-2.7125,-0.6983,-4.8549,55.75020528,48.74102782,0.00000000,
1.580711,-2.7125,-0.6983,-4.8549,55.75020528,48.74102782,0.00000000,
1.581557,0.1800,-2.1696,-1.3787,55.75020528,48.74102782,0.00000000,
1.582518,0.1800,-2.1696,-1.3787,55.75020528,48.74102782,0.00000000,
1.600648,0.1800,-2.1696,-1.3787,55.75020528,48.74102782,0.00000000,
1.601487,0.1800,-2.1696,-1.3787,55.75020528,48.74102782,0.00000000,
1.620075,0.1800,-2.1696,-1.3787,55.75020528,48.74102782,0.00000000,
1.620884,0.1800,-2.1696,-1.3787,55.75020528,48.74102782,0.00000000,
1.621480,-4.6383,0.5126,-0.5386,55.75020528,48.74102782,0.00000000,
1.639324,-4.6383,0.5126,-0.5386,55.75020528,48.74102782,0.00000000,
1.640213,-4.6383,0.5126,-0.5386,55.75020528,48.74102782,0.00000000,
1.658486,-4.6383,0.5126,-0.5386,55.75020528,48.74102782,0.00000000,
1.659313,-4.6383,0.5126,-0.5386,55.75020528,48.74102782,0.00000000,
1.660025,-3.7914,-0.3584,9.9032,55.75020528,48.74102782,0.00000000,
1.676851,-3.7914,-0.3584,9.9032,55.75020528,48.74102782,0.00000000,
1.677657,-3.7914,-0.3584,9.9032,55.75020528,48.74102782,0.00000000,
1.695637,-3.7914,-0.3584,9.9032,55.75020528,48.74102782,0.00000000,
1.696436,-3.7914,-0.3584,9.9032,55.75020528,48.74102782,0.00000000,
1.697041,-0.9895,4.0260,3.1152,55.75020528,48.74102782,0.00000000,
1.716605,-0.9895,4.0260,3.1152,55.75020528,48.74102782,0.00000000,
1.717410,-0.9895,4.0260,3.1152,55.75020528,48.74102782,0.00000000,
1.735109,-0.9895,4.0260,3.1152,55.75020528,48.74102782,0.00000000,
1.735919,-0.9895,4.0260,3.1152,55.75020528,48.74102782,0.00000000,
1.736549,1.1927,4.1271,-1.6566,55.75020528,48.74102782,0.00000000,
1.754886,1.1927,4.1271,-1.6566,55.75020528,48.74102782,0.00000000,
1.755654,1.1927,4.1271,-1.6566,55.75020528,48.74102782,0.00000000,
1.773571,4.6647,1.6329,1.5135,55.75020528,48.74102782,0.00000000,
1.774786,4.6647,1.6329,1.5135,55.75020528,48.74102782,0.00000000,
1.775308,4.6647,1.6329,1.5135,55.75020528,48.74102782,0.00000000,
1.793134,4.6647,1.6329,1.5135,55.75020528,48.74102782,0.00000000,
1.793961,4.6647,1.6329,1.5135,55.75020528,48.74102782,0.00000000,
1.811373,4.6647,1.6329,1.5135,55.75020528,48.74102782,0.00000000,
1.812326,4.6647,1.6329,1.5135,55.75020528,48.74102782,0.00000000,
1.813119,-1.3828,5.2895,-4.5775,55.75020528,48.74102782,0.00000000,
1.831562,-1.3828,5.2895,-4.5775,55.75020528,48.74102782,0.00000000,
1.832336,-1.3828,5.2895,-4.5775,55.75020528,48.74102782,0.00000000,
1.850752,6.9870,0.1957,-2.6841,55.75020528,48.74102782,0.00000000,
1.852012,6.9870,0.1957,-2.6841,55.75020528,48.74102782,0.00000000,
1.852593,6.9870,0.1957,-2.6841,55.75020528,48.74102782,0.00000000,
1.870383,6.9870,0.1957,-2.6841,55.75020528,48.74102782,0.00000000,
1.871156,6.9870,0.1957,-2.6841,55.75020528,48.74102782,0.00000000,
1.889151,6.9870,0.1957,-2.6841,55.75020528,48.74102782,0.00000000,
1.889989,6.9870,0.1957,-2.6841,55.75020528,48.74102782,0.00000000,
1.890573,4.2884,-0.2884,1.1937,55.75020528,48.74102782,0.00000000,
1.908310,4.2884,-0.2884,1.1937,55.75020528,48.74102782,0.00000000,
1.909083,4.2884,-0.2884,1.1937,55.75020528,48.74102782,0.00000000,
1.927093,4.2884,-0.2884,1.1937,55.75020528,48.74102782,0.00000000,
1.927882,4.2884,-0.2884,1.1937,55.75020528,48.74102782,0.00000000,
1.928457,0.8839,0.6742,1.6898,55.75020528,48.74102782,0.00000000,
1.946168,0.8839,0.6742,1.6898,55.75020528,48.74102782,0.00000000,
1.947106,0.8839,0.6742,1.6898,55.75020528,48.74102782,0.00000000,
1.966205,0.8839,0.6742,1.6898,55.75020528,48.74102782,0.00000000,
1.967113,0.8839,0.6742,1.6898,55.75020528,48.74102782,0.00000000,
1.967634,0.4807,0.6931,-2.5201,55.75020528,48.74102782,0.00000000,
1.985605,0.4807,0.6931,-2.5201,55.75020528,48.74102782,0.00000000,
1.986444,0.4807,0.6931,-2.5201,55.75020528,48.74102782,0.00000000,
2.004758,2.5191,0.6184,-1.4673,55.75020528,48.74102782,0.00000000,
2.005876,2.5191,0.6184,-1.4673,55.75020528,48.74102782,0.00000000,
2.006459,2.5191,0.6184,-1.4673,55.75020528,48.74102782,0.00000000,
2.023401,2.5191,0.6184,-1.4673,55.75020528,48.74102782,0.00000000,
2.024125,2.5191,0.6184,-1.4673,55.75020528,48.74102782,0.00000000,
2.042589,1.5701,-2.1387,0.0927,55.75020528,48.74102782,0.00000000,
2.043942,1.5701,-2.1387,0.0927,55.75020528,48.74102782,0.00000000,
2.044599,1.5701,-2.1387,0.0927,55.75020528,48.74102782,0.00000000,
2.062274,1.5701,-2.1387,0.0927,55.75020528,48.74102782,0.00000000,
2.063199,1.5701,-2.1387,0.0927,55.75020528,48.74102782,0.00000000,
2.081860,-4.1843,-0.9355,-1.3940,55.75020528,48.74102782,0.00000000,
2.083107,-4.1843,-0.9355,-1.3940,55.75020528,48.74102782,0.00000000,
2.083704,-4.1843,-0.9355,-1.3940,55.75020528,48.74102782,0.00000000,
2.105069,-4.1843,-0.9355,-1.3940,55.75020528,48.74102782,0.00000000,
2.105850,-4.1843,-0.9355,-1.3940,55.75020528,48.74102782,0.00000000,
2.120347,-4.1843,-0.9355,-1.3940,55.75020528,48.74102782,0.00000000,
2.121077,-2.3818,-2.2179,-2.4955,55.75020528,48.74102782,0.00000000,
2.122004,-2.3818,-2.2179,-2.4955,55.75020528,48.74102782,0.00000000,
2.141487,-2.3818,-2.2179,-2.4955,55.75020528,48.74102782,0.00000000,
2.142239,-2.3818,-2.2179,-2.4955,55.75020528,48.74102782,0.00000000,
2.157575,-2.3818,-2.2179,-2.4955,55.75020528,48.74102782,0.00000000,
2.158310,-1.0432,-2.1358,1.5252,55.75020093,48.74100659,1.58000004,
2.159439,-1.0432,-2.1358,1.5252,55.75020093,48.74100659,1.58000004,
2.177259,-1.0432,-2.1358,1.5252,55.75020093,48.74100659,1.58000004,
2.178025,-1.0432,-2.1358,1.5252,55.75020093,48.74100659,1.58000004,
2.195951,-1.0432,-2.1358,1.5252,55.75020093,48.74100659,1.58000004,
2.196892,-1.0432,-2.1358,1.5252,55.75020093,48.74100659,1.58000004,
2.197460,-2.1666,-1.0925,0.3230,55.75020093,48.74100659,1.58000004,
2.215864,-2.1666,-1.0925,0.3230,55.75020093,48.74100659,1.58000004,
2.216744,-2.1666,-1.0925,0.3230,55.75020093,48.74100659,1.58000004,
2.235214,-2.1666,-1.0925,0.3230,55.75020093,48.74100659,1.58000004,
2.236057,-3.7070,-2.9793,6.7670,55.75020093,48.74100659,1.58000004,
2.237207,-3.7070,-2.9793,6.7670,55.75020093,48.74100659,1.58000004,
2.254571,-3.7070,-2.9793,6.7670,55.75020093,48.74100659,1.58000004,
2.255406,-3.7070,-2.9793,6.7670,55.75020093,48.74100659,1.58000004,
2.273834,-3.7070,-2.9793,6.7670,55.75020093,48.74100659,1.58000004,
2.274624,-3.7070,-2.9793,6.7670,55.75020093,48.74100659,1.58000004,
2.275165,-5.1979,0.5324,-2.9825,55.75020093,48.74100659,1.58000004,
2.292378,-5.1979,0.5324,-2.9825,55.75020093,48.74100659,1.58000004,
2.293224,-5.1979,0.5324,-2.9825,55.75020093,48.74100659,1.58000004,
2.311663,-5.1979,0.5324,-2.9825,55.75020093,48.74100659,1.58000004,
2.312478,-5.1979,0.5324,-2.9825,55.75020093,48.74100659,1.58000004,
2.313111,-0.4829,-1.3413,5.4563,55.75020093,48.74100659,1.58000004,
2.331130,-0.4829,-1.3413,5.4563,55.75020093,48.74100659,1.58000004,
2.331862,-0.4829,-1.3413,5.4563,55.75020093,48.74100659,1.58000004,
2.350385,-0.4829,-1.3413,5.4563,55.75020093,48.74100659,1.58000004,
2.351135,-0.4829,-1.3413,5.4563,55.75020093,48.74100659,1.58000004,
2.351700,0.4674,3.3787,1.7059,55.75020093,48.74100659,1.58000004,
2.370574,0.4674,3.3787,1.7059,55.75020093,48.74100659,1.58000004,
2.371365,0.4674,3.3787,1.7059,55.75020093,48.74100659,1.58000004,
2.389752,0.4674,3.3787,1.7059,55.75020093,48.74100659,1.58000004,
2.390574,4.6171,5.6324,-9.2319,55.75020093,48.74100659,1.58000004,
2.391602,4.6171,5.6324,-9.2319,55.75020093,48.74100659,1.58000004,
2.408682,4.6171,5.6324,-9.2319,55.75020093,48.74100659,1.58000004,
2.409491,4.6171,5.6324,-9.2319,55.75020093,48.74100659,1.58000004,
2.427666,4.6171,5.6324,-9.2319,55.75020093,48.74100659,1.58000004,
2.428540,6.6360,1.8311,-3.4647,55.75020093,48.74100659,1.58000004,
2.429590,6.6360,1.8311,-3.4647,55.75020093,48.74100659,1.58000004,
2.448065,6.6360,1.8311,-3.4647,55.75020093,48.74100659,1.58000004,
2.448841,6.6360,1.8311,-3.4647,55.75020093,48.74100659,1.58000004,
2.466990,5.2862,-0.5335,2.7964,55.75020093,48.74100659,1.58000004,
2.468183,5.2862,-0.5335,2.7964,55.75020093,48.74100659,1.58000004,
2.468717,5.2862,-0.5335,2.7964,55.75020093,48.74100659,1.58000004,
2.485583,5.2862,-0.5335,2.7964,55.75020093,48.74100659,1.58000004,
2.486366,5.2862,-0.5335,2.7964,55.75020093,48.74100659,1.58000004,
2.504565,1.4926,0.2716,-0.6600,55.75020093,48.74100659,1.58000004,
2.505719,1.4926,0.2716,-0.6600,55.75020093,48.74100659,1.58000004,
2.506251,1.4926,0.2716,-0.6600,55.75020093,48.74100659,1.58000004,
2.523442,1.4926,0.2716,-0.6600,55.75020093,48.74100659,1.58000004,
2.524165,1.4926,0.2716,-0.6600,55.75020093,48.74100659,1.58000004,
2.542516,3.9222,0.0929,-4.2306,55.75020093,48.74100659,1.58000004,
2.543785,3.9222,0.0929,-4.2306,55.75020093,48.74100659,1.58000004,
2.544396,3.9222,0.0929,-4.2306,55.75020093,48.74100659,1.58000004,
2.562360,3.9222,0.0929,-4.2306,55.75020093,48.74100659,1.58000004,
2.563151,3.9222,0.0929,-4.2306,55.75020093,48.74100659,1.58000004,
2.581541,3.9222,0.0929,-4.2306,55.75020093,48.74100659,1.58000004,
2.582280,3.9222,0.0929,-4.2306,55.75020093,48.74100659,1.58000004,
2.582796,1.3558,1.1773,0.4358,55.75020093,48.74100659,1.58000004,
2.601128,1.3558,1.1773,0.4358,55.75020093,48.74100659,1.58000004,
2.601910,1.3558,1.1773,0.4358,55.75020093,48.74100659,1.58000004,
2.620071,1.3558,1.1773,0.4358,55.75020093,48.74100659,1.58000004,
2.620797,1.3558,1.1773,0.4358,55.75020093,48.74100659,1.58000004,
2.621334,2.7150,2.7313,1.4028,55.75020093,48.74100659,1.58000004,
2.639314,2.7150,2.7313,1.4028,55.75020093,48.74100659,1.58000004,
2.640186,2.7150,2.7313,1.4028,55.75020093,48.74100659,1.58000004,
2.657900,2.7150,2.7313,1.4028,55.75020093,48.74100659,1.58000004,
2.658627,2.7150,2.7313,1.4028,55.75020093,48.74100659,1.58000004,
2.659242,5.1429,-2.8746,7.1733,55.75020093,48.74100659,1.58000004,
2.677287,5.1429,-2.8746,7.1733,55.75020093,48.74100659,1.58000004,
2.678047,5.1429,-2.8746,7.1733,55.75020093,48.74100659,1.58000004,
2.696988,-7.8471,-1.4315,2.9757,55.75020093,48.74100659,1.58000004,
2.698143,-7.8471,-1.4315,2.9757,55.75020093,48.74100659,1.58000004,
2.698673,-7.8471,-1.4315,2.9757,55.75020093,48.74100659,1.58000004,
2.716401,-7.8471,-1.4315,2.9757,55.75020093,48.74100659,1.58000004,
2.717163,-7.8471,-1.4315,2.9757,55.75020093,48.74100659,1.58000004,
2.735626,-7.8471,-1.4315,2.9757,55.75020093,48.74100659,1.58000004,
2.736428,-7.8471,-1.4315,2.9757,55.75020093,48.74100659,1.58000004,
2.737021,1.3978,-6.8219,6.4073,55.75020093,48.74100659,1.58000004,
2.754954,1.3978,-6.8219,6.4073,55.75020093,48.74100659,1.58000004,
2.755684,1.3978,-6.8219,6.4073,55.75020093,48.74100659,1.58000004,
2.773828,1.3978,-6.8219,6.4073,55.75020093,48.74100659,1.58000004,
2.774572,1.3978,-6.8219,6.4073,55.75020093,48.74100659,1.58000004,
2.775126,-3.2931,-3.9163,-2.6422,55.75020093,48.74100659,1.58000004,
2.792879,-3.2931,-3.9163,-2.6422,55.75020093,48.74100659,1.58000004,
2.793663,-3.2931,-3.9163,-2.6422,55.75020093,48.74100659,1.58000004,
2.812440,-3.2931,-3.9163,-2.6422,55.75020093,48.74100659,1.58000004,
2.813230,-4.0916,-1.4436,-3.1200,55.75020093,48.74100659,1.58000004,
2.814169,-4.0916,-1.4436,-3.1200,55.75020093,48.74100659,1.58000004,
2.830838,-4.0916,-1.4436,-3.1200,55.75020093,48.74100659,1.58000004,
2.831570,-4.0916,-1.4436,-3.1200,55.75020093,48.74100659,1.58000004,
2.851038,-4.0916,-1.4436,-3.1200,55.75020093,48.74100659,1.58000004,
2.851809,-4.0916,-1.4436,-3.1200,55.75020093,48.74100659,1.58000004,
2.852324,-6.3575,-1.8904,-3.9293,55.75020093,48.74100659,1.58000004,
2.870141,-6.3575,-1.8904,-3.9293,55.75020093,48.74100659,1.58000004,
2.870890,-6.3575,-1.8904,-3.9293,55.75020093,48.74100659,1.58000004,
2.889525,-6.3575,-1.8904,-3.9293,55.75020093,48.74100659,1.58000004,
2.890452,-6.3575,-1.8904,-3.9293,55.75020093,48.74100659,1.58000004,
2.891055,-5.2039,-1.5394,-2.6543,55.75020093,48.74100659,1.58000004,
2.907663,-5.2039,-1.5394,-2.6543,55.75020093,48.74100659,1.58000004,
2.908394,-5.2039,-1.5394,-2.6543,55.75020093,48.74100659,1.58000004,
2.927357,-5.2039,-1.5394,-2.6543,55.75020093,48.74100659,1.58000004,
2.928156,-5.2039,-1.5394,-2.6543,55.75020093,48.74100659,1.58000004,
2.928726,-1.4630,-0.3334,-0.9202,55.75020093,48.74100659,1.58000004,
2.947155,-1.4630,-0.3334,-0.9202,55.75020093,48.74100659,1.58000004,
2.947898,-1.4630,-0.3334,-0.9202,55.75020093,48.74100659,1.58000004,
2.966264,-3.0906,2.2729,1.0460,55.75020093,48.74100659,1.58000004,
2.967494,-3.0906,2.2729,1.0460,55.75020093,48.74100659,1.58000004,
2.968104,-3.0906,2.2729,1.0460,55.75020093,48.74100659,1.58000004,
2.985649,-3.0906,2.2729,1.0460,55.75020093,48.74100659,1.58000004,
2.986445,-3.0906,2.2729,1.0460,55.75020093,48.74100659,1.58000004,
3.003930,-3.0906,2.2729,1.0460,55.75020093,48.74100659,1.58000004,
3.004643,-3.0906,2.2729,1.0460,55.75020093,48.74100659,1.58000004,
3.005232,-1.7966,4.4999,-1.8549,55.75020093,48.74100659,1.58000004,
3.023724,-1.7966,4.4999,-1.8549,55.75020093,48.74100659,1.58000004,
3.024058,-1.7966,4.4999,-1.8549,55.75020093,48.74100659,1.58000004,
3.043171,-1.7966,4.4999,-1.8549,55.75020093,48.74100659,1.58000004,
3.043505,-1.7966,4.4999,-1.8549,55.75020093,48.74100659,1.58000004,
3.043676,5.8831,1.1583,0.8148,55.75020093,48.74100659,1.58000004,
3.062345,5.8831,1.1583,0.8148,55.75020093,48.74100659,1.58000004,
3.062766,5.8831,1.1583,0.8148,55.75020093,48.74100659,1.58000004,
3.080937,5.8831,1.1583,0.8148,55.75020093,48.74100659,1.58000004,
3.081421,5.8831,1.1583,0.8148,55.75020093,48.74100659,1.58000004,
3.081737,1.6212,2.8941,-2.3868,55.75020093,48.74100659,1.58000004,
3.101242,1.6212,2.8941,-2.3868,55.75020093,48.74100659,1.58000004,
3.101675,1.6212,2.8941,-2.3868,55.75020093,48.74100659,1.58000004,
3.119953,1.6212,2.8941,-2.3868,55.75020093,48.74100659,1.58000004,
3.120386,1.6212,2.8941,-2.3868,55.75018725,48.74096425,3.03999996,
3.120845,4.7167,-0.3087,1.3721,55.75018725,48.74096425,3.03999996,
3.139245,4.7167,-0.3087,1.3721,55.75018725,48.74096425,3.03999996,
3.139880,4.7167,-0.3087,1.3721,55.75018725,48.74096425,3.03999996,
3.158162,4.7167,-0.3087,1.3721,55.75018725,48.74096425,3.03999996,
3.158802,1.1791,1.5668,-2.9436,55.75018725,48.74096425,3.03999996,
3.159599,1.1791,1.5668,-2.9436,55.75018725,48.74096425,3.03999996,
3.177896,1.1791,1.5668,-2.9436,55.75018725,48.74096425,3.03999996,
3.178688,1.1791,1.5668,-2.9436,55.75018725,48.74096425,3.03999996,
3.196670,1.1791,1.5668,-2.9436,55.75018725,48.74096425,3.03999996,
3.197316,1.1791,1.5668,-2.9436,55.75018725,48.74096425,3.03999996,
3.197760,3.9934,1.2004,2.8408,55.75018725,48.74096425,3.03999996,
3.216101,3.9934,1.2004,2.8408,55.75018725,48.74096425,3.03999996,
3.216934,3.9934,1.2004,2.8408,55.75018725,48.74096425,3.03999996,
3.235797,3.9934,1.2004,2.8408,55.75018725,48.74096425,3.03999996,
3.236673,3.9934,1.2004,2.8408,55.75018725,48.74096425,3.03999996,
3.237213,0.0848,2.5508,-3.2206,55.75018725,48.74096425,3.03999996,
3.254975,0.0848,2.5508,-3.2206,55.75018725,48.74096425,3.03999996,
3.255787,0.0848,2.5508,-3.2206,55.75018725,48.74096425,3.03999996,
3.274255,0.0848,2.5508,-3.2206,55.75018725,48.74096425,3.03999996,
3.275022,0.0848,2.5508,-3.2206,55.75018725,48.74096425,3.03999996,
3.275601,2.6257,-1.7848,5.2292,55.75018725,48.74096425,3.03999996,
3.292896,2.6257,-1.7848,5.2292,55.75018725,48.74096425,3.03999996,
3.293672,2.6257,-1.7848,5.2292,55.75018725,48.74096425,3.03999996,
3.313749,2.6257,-1.7848,5.2292,55.75018725,48.74096425,3.03999996,
3.314529,-2.1967,-2.9283,2.3985,55.75018725,48.74096425,3.03999996,
3.315490,-2.1967,-2.9283,2.3985,55.75018725,48.74096425,3.03999996,
3.332378,-2.1967,-2.9283,2.3985,55.75018725,48.74096425,3.03999996,
3.333252,-2.1967,-2.9283,2.3985,55.75018725,48.74096425,3.03999996,
3.351522,-2.1967,-2.9283,2.3985,55.75018725,48.74096425,3.03999996,
3.352373,-2.1967,-2.9283,2.3985,55.75018725,48.74096425,3.03999996,
3.352905,-3.7197,-2.6210,-4.3458,55.75018725,48.74096425,3.03999996,
3.371447,-3.7197,-2.6210,-4.3458,55.75018725,48.74096425,3.03999996,
3.372241,-3.7197,-2.6210,-4.3458,55.75018725,48.74096425,3.03999996,
3.388946,0.5440,-4.5351,-1.5027,55.75018725,48.74096425,3.03999996,
3.390553,0.5440,-4.5351,-1.5027,55.75018725,48.74096425,3.03999996,
3.391166,0.5440,-4.5351,-1.5027,55.75018725,48.74096425,3.03999996,
3.408851,0.5440,-4.5351,-1.5027,55.75018725,48.74096425,3.03999996,
3.410054,0.5440,-4.5351,-1.5027,55.75018725,48.74096425,3.03999996,
3.428113,-1.1707,-2.0616,-1.1512,55.75018725,48.74096425,3.03999996,
3.429813,-1.1707,-2.0616,-1.1512,55.75018725,48.74096425,3.03999996,
3.430460,-1.1707,-2.0616,-1.1512,55.75018725,48.74096425,3.03999996,
3.447626,-1.1707,-2.0616,-1.1512,55.75018725,48.74096425,3.03999996,
3.448686,-1.1707,-2.0616,-1.1512,55.75018725,48.74096425,3.03999996,
3.467181,-1.1707,-2.0616,-1.1512,55.75018725,48.74096425,3.03999996,
3.468236,-1.1707,-2.0616,-1.1512,55.75018725,48.74096425,3.03999996,
3.468765,-3.3829,0.3912,-5.9962,55.75018725,48.74096425,3.03999996,
3.486148,-3.3829,0.3912,-5.9962,55.75018725,48.74096425,3.03999996,
3.487286,-3.3829,0.3912,-5.9962,55.75018725,48.74096425,3.03999996,
3.505452,-3.3829,0.3912,-5.9962,55.75018725,48.74096425,3.03999996,
3.506569,-3.3829,0.3912,-5.9962,55.75018725,48.74096425,3.03999996,
3.507162,-5.4915,-2.6164,5.6024,55.75018725,48.74096425,3.03999996,
3.524086,-5.4915,-2.6164,5.6024,55.75018725,48.74096425,3.03999996,
3.525154,-5.4915,-2.6164,5.6024,55.75018725,48.74096425,3.03999996,
3.544238,-5.4915,-2.6164,5.6024,55.75018725,48.74096425,3.03999996,
3.545550,-5.4915,-2.6164,5.6024,55.75018725,48.74096425,3.03999996,
3.546210,-0.6263,-1.8070,0.2416,55.75018725,48.74096425,3.03999996,
3.563215,-0.6263,-1.8070,0.2416,55.75018725,48.74096425,3.03999996,
3.564269,-0.6263,-1.8070,0.2416,55.75018725,48.74096425,3.03999996,
3.582290,-0.6263,-1.8070,0.2416,55.75018725,48.74096425,3.03999996,
3.583385,-0.6263,-1.8070,0.2416,55.75018725,48.74096425,3.03999996,
3.583949,-0.9741,1.9237,0.8279,55.75018725,48.74096425,3.03999996,
3.600782,-0.9741,1.9237,0.8279,55.75018725,48.74096425,3.03999996,
3.601782,-0.9741,1.9237,0.8279,55.75018725,48.74096425,3.03999996,
3.620487,-0.9741,1.9237,0.8279,55.75018725,48.74096425,3.03999996,
3.621446,3.5050,0.4021,4.6303,55.75018725,48.74096425,3.03999996,
3.622369,3.5050,0.4021,4.6303,55.75018725,48.74096425,3.03999996,
3.640239,3.5050,0.4021,4.6303,55.75018725,48.74096425,3.03999996,
3.641415,3.5050,0.4021,4.6303,55.75018725,48.74096425,3.03999996,
3.658865,3.5050,0.4021,4.6303,55.75018725,48.74096425,3.03999996,
3.660151,3.5050,0.4021,4.6303,55.75018725,48.74096425,3.03999996,
3.660813,0.6365,3.8883,6.1576,55.75018725,48.74096425,3.03999996,
3.678622,0.6365,3.8883,6.1576,55.75018725,48.74096425,3.03999996,
3.679697,0.6365,3.8883,6.1576,55.75018725,48.74096425,3.03999996,
3.697806,0.6365,3.8883,6.1576,55.75018725,48.74096425,3.03999996,
3.698830,0.6365,3.8883,6.1576,55.75018725,48.74096425,3.03999996,
3.699373,2.5176,4.4256,4.3542,55.75018725,48.74096425,3.03999996,
3.716703,2.5176,4.4256,4.3542,55.75018725,48.74096425,3.03999996,
3.717705,2.5176,4.4256,4.3542,55.75018725,48.74096425,3.03999996,
3.736234,2.5176,4.4256,4.3542,55.75018725,48.74096425,3.03999996,
3.737371,2.5176,4.4256,4.3542,55.75018725,48.74096425,3.03999996,
3.737913,0.9256,3.8012,-3.2105,55.75018725,48.74096425,3.03999996,
3.754822,0.9256,3.8012,-3.2105,55.75018725,48.74096425,3.03999996,
3.755582,0.9256,3.8012,-3.2105,55.75018725,48.74096425,3.03999996,
3.775122,0.9256,3.8012,-3.2105,55.75018725,48.74096425,3.03999996,
3.776443,0.9256,3.8012,-3.2105,55.75018725,48.74096425,3.03999996,
3.777085,5.9257,-1.7746,-0.3249,55.75018725,48.74096425,3.03999996,
3.793401,5.9257,-1.7746,-0.3249,55.75018725,48.74096425,3.03999996,
3.794438,5.9257,-1.7746,-0.3249,55.75018725,48.74096425,3.03999996,
3.813894,5.9257,-1.7746,-0.3249,55.75018725,48.74096425,3.03999996,
3.815016,5.9257,-1.7746,-0.3249,55.75018725,48.74096425,3.03999996,
3.815559,3.1178,-1.7779,-2.1615,55.75018725,48.74096425,3.03999996,
3.832705,3.1178,-1.7779,-2.1615,55.75018725,48.74096425,3.03999996,
3.833800,3.1178,-1.7779,-2.1615,55.75018725,48.74096425,3.03999996,
3.851692,3.1178,-1.7779,-2.1615,55.75018725,48.74096425,3.03999996,
3.852732,3.1178,-1.7779,-2.1615,55.75018725,48.74096425,3.03999996,
3.853407,4.0787,-4.2007,1.4111,55.75018725,48.74096425,3.03999996,
3.870744,4.0787,-4.2007,1.4111,55.75018725,48.74096425,3.03999996,
3.871701,4.0787,-4.2007,1.4111,55.75018725,48.74096425,3.03999996,
3.889753,4.0787,-4.2007,1.4111,55.75018725,48.74096425,3.03999996,
3.890830,4.0787,-4.2007,1.4111,55.75018725,48.74096425,3.03999996,
3.891445,-0.5477,-4.5554,1.2947,55.75018725,48.74096425,3.03999996,
3.908775,-0.5477,-4.5554,1.2947,55.75018725,48.74096425,3.03999996,
3.910081,-0.5477,-4.5554,1.2947,55.75018725,48.74096425,3.03999996,
3.928461,-0.5477,-4.5554,1.2947,55.75018725,48.74096425,3.03999996,
3.929430,-0.5477,-4.5554,1.2947,55.75018725,48.74096425,3.03999996,
3.930201,-8.3901,2.3186,-8.7219,55.75018725,48.74096425,3.03999996,
3.947904,-8.3901,2.3186,-8.7219,55.75018725,48.74096425,3.03999996,
3.948852,-8.3901,2.3186,-8.7219,55.75018725,48.74096425,3.03999996,
3.966856,-8.3901,2.3186,-8.7219,55.75018725,48.74096425,3.03999996,
3.967887,-8.3901,2.3186,-8.7219,55.75018725,48.74096425,3.03999996,
3.968468,5.1941,-5.9770,3.5651,55.75018725,48.74096425,3.03999996,
3.986412,5.1941,-5.9770,3.5651,55.75018725,48.74096425,3.03999996,
3.987472,5.1941,-5.9770,3.5651,55.75018725,48.74096425,3.03999996,
4.005514,5.1941,-5.9770,3.5651,55.75018725,48.74096425,3.03999996,
4.006678,5.1941,-5.9770,3.5651,55.75018725,48.74096425,3.03999996,
4.007356,-6.3357,0.2533,0.4720,55.75018725,48.74096425,3.03999996,
4.024006,-6.3357,0.2533,0.4720,55.75018725,48.74096425,3.03999996,
4.025305,-6.3357,0.2533,0.4720,55.75018725,48.74096425,3.03999996,
4.044500,-6.3357,0.2533,0.4720,55.75018725,48.74096425,3.03999996,
4.045503,-9.0752,-0.6245,5.1516,55.75018725,48.74096425,3.03999996,
4.046596,-9.0752,-0.6245,5.1516,55.75018725,48.74096425,3.03999996,
4.063231,-9.0752,-0.6245,5.1516,55.75018725,48.74096425,3.03999996,
4.064235,-9.0752,-0.6245,5.1516,55.75018725,48.74096425,3.03999996,
4.095271,-9.0752,-0.6245,5.1516,55.75018725,48.74096425,3.03999996,
4.096196,-9.0752,-0.6245,5.1516,55.75018725,48.74096425,3.03999996,
4.096898,-7.6544,-2.2849,-1.1649,55.75018725,48.74096425,3.03999996,
4.103861,-7.6544,-2.2849,-1.1649,55.75018725,48.74096425,3.03999996,
4.104600,-7.6544,-2.2849,-1.1649,55.75018725,48.74096425,3.03999996,
4.122117,1.5332,-2.9661,-9.3800,55.75018725,48.74096425,3.03999996,
4.123485,1.5332,-2.9661,-9.3800,55.75018725,48.74096425,3.03999996,
4.124050,1.5332,-2.9661,-9.3800,55.75018725,48.74096425,3.03999996,
4.139759,1.5332,-2.9661,-9.3800,55.75018725,48.74096425,3.03999996,
4.140579,1.5332,-2.9661,-9.3800,55.75018725,48.74096425,3.03999996,
4.159332,1.5332,-2.9661,-9.3800,55.75018725,48.74096425,3.03999996,
4.160467,1.5332,-2.9661,-9.3800,55.75016805,48.74091227,3.59999990,
4.161435,8.5151,-7.7233,9.2582,55.75016805,48.74091227,3.59999990,
4.178883,8.5151,-7.7233,9.2582,55.75016805,48.74091227,3.59999990,
4.179992,8.5151,-7.7233,9.2582,55.75016805,48.74091227,3.59999990,
4.198621,8.5151,-7.7233,9.2582,55.75016805,48.74091227,3.59999990,
4.199715,8.5151,-7.7233,9.2582,55.75016805,48.74091227,3.59999990,
4.200352,-8.2135,8.9857,-2.8426,55.75016805,48.74091227,3.59999990,
4.217468,-8.2135,8.9857,-2.8426,55.75016805,48.74091227,3.59999990,
4.218486,-8.2135,8.9857,-2.8426,55.75016805,48.74091227,3.59999990,
4.237281,-8.2135,8.9857,-2.8426,55.75016805,48.74091227,3.59999990,
4.238423,-8.2135,8.9857,-2.8426,55.75016805,48.74091227,3.59999990,
4.239049,7.3660,-1.0916,-0.4037,55.75016805,48.74091227,3.59999990,
4.254494,7.3660,-1.0916,-0.4037,55.75016805,48.74091227,3.59999990,
4.255440,7.3660,-1.0916,-0.4037,55.75016805,48.74091227,3.59999990,
4.274800,7.3660,-1.0916,-0.4037,55.75016805,48.74091227,3.59999990,
4.275975,7.3660,-1.0916,-0.4037,55.75016805,48.74091227,3.59999990,
4.276674,3.9828,-0.2763,9.8623,55.75016805,48.74091227,3.59999990,
4.294448,3.9828,-0.2763,9.8623,55.75016805,48.74091227,3.59999990,
4.295516,3.9828,-0.2763,9.8623,55.75016805,48.74091227,3.59999990,
4.313466,-0.2308,3.9697,-2.7469,55.75016805,48.74091227,3.59999990,
4.314999,-0.2308,3.9697,-2.7469,55.75016805,48.74091227,3.59999990,
4.315584,-0.2308,3.9697,-2.7469,55.75016805,48.74091227,3.59999990,
4.332929,-0.2308,3.9697,-2.7469,55.75016805,48.74091227,3.59999990,
4.334082,-0.2308,3.9697,-2.7469,55.75016805,48.74091227,3.59999990,
4.352008,6.2897,0.1374,-5.9624,55.75016805,48.74091227,3.59999990,
4.353706,6.2897,0.1374,-5.9624,55.75016805,48.74091227,3.59999990,
4.354310,6.2897,0.1374,-5.9624,55.75016805,48.74091227,3.59999990,
4.371878,6.2897,0.1374,-5.9624,55.75016805,48.74091227,3.59999990,
4.373128,6.2897,0.1374,-5.9624,55.75016805,48.74091227,3.59999990,
4.389816,6.2897,0.1374,-5.9624,55.75016805,48.74091227,3.59999990,
4.391171,6.2897,0.1374,-5.9624,55.75016805,48.74091227,3.59999990,
4.391871,7.9669,-3.7817,0.2011,55.75016805,48.74091227,3.59999990,
4.410050,7.9669,-3.7817,0.2011,55.75016805,48.74091227,3.59999990,
4.411060,7.9669,-3.7817,0.2011,55.75016805,48.74091227,3.59999990,
4.428891,7.9669,-3.7817,0.2011,55.75016805,48.74091227,3.59999990,
4.430060,-0.5041,1.9626,-1.7843,55.75016805,48.74091227,3.59999990,
4.431080,-0.5041,1.9626,-1.7843,55.75016805,48.74091227,3.59999990,
4.448448,-0.5041,1.9626,-1.7843,55.75016805,48.74091227,3.59999990,
4.449439,-0.5041,1.9626,-1.7843,55.75016805,48.74091227,3.59999990,
4.467438,9.0882,-5.0752,7.9676,55.75016805,48.74091227,3.59999990,
4.468931,9.0882,-5.0752,7.9676,55.75016805,48.74091227,3.59999990,
4.469485,9.0882,-5.0752,7.9676,55.75016805,48.74091227,3.59999990,
4.486189,9.0882,-5.0752,7.9676,55.75016805,48.74091227,3.59999990,
4.487041,9.0882,-5.0752,7.9676,55.75016805,48.74091227,3.59999990,
4.506002,9.0882,-5.0752,7.9676,55.75016805,48.74091227,3.59999990,
4.507237,9.0882,-5.0752,7.9676,55.75016805,48.74091227,3.59999990,
4.507816,2.5218,-5.7511,10.5491,55.75016805,48.74091227,3.59999990,
4.525071,2.5218,-5.7511,10.5491,55.75016805,48.74091227,3.59999990,
4.526101,2.5218,-5.7511,10.5491,55.75016805,48.74091227,3.59999990,
4.543983,-6.0360,0.6493,1.4619,55.75016805,48.74091227,3.59999990,
4.545621,-6.0360,0.6493,1.4619,55.75016805,48.74091227,3.59999990,
4.546205,-6.0360,0.6493,1.4619,55.75016805,48.74091227,3.59999990,
4.563884,-6.0360,0.6493,1.4619,55.75016805,48.74091227,3.59999990,
4.564898,-6.0360,0.6493,1.4619,55.75016805,48.74091227,3.59999990,
4.582535,0.4594,-1.4351,-5.8399,55.75016805,48.74091227,3.59999990,
4.583950,0.4594,-1.4351,-5.8399,55.75016805,48.74091227,3.59999990,
4.584510,0.4594,-1.4351,-5.8399,55.75016805,48.74091227,3.59999990,
4.602293,0.4594,-1.4351,-5.8399,55.75016805,48.74091227,3.59999990,
4.603439,0.4594,-1.4351,-5.8399,55.75016805,48.74091227,3.59999990,
4.621237,0.4594,-1.4351,-5.8399,55.75016805,48.74091227,3.59999990,
4.622393,0.4594,-1.4351,-5.8399,55.75016805,48.74091227,3.59999990,
4.623197,-0.6439,-2.8876,-0.4587,55.75016805,48.74091227,3.59999990,
4.640651,-0.6439,-2.8876,-0.4587,55.75016805,48.74091227,3.59999990,
4.641842,-0.6439,-2.8876,-0.4587,55.75016805,48.74091227,3.59999990,
4.660026,-0.6439,-2.8876,-0.4587,55.75016805,48.74091227,3.59999990,
4.661021,-0.6439,-2.8876,-0.4587,55.75016805,48.74091227,3.59999990,
4.661582,-9.3985,2.1004,-8.2660,55.75016805,48.74091227,3.59999990,
4.679000,-9.3985,2.1004,-8.2660,55.75016805,48.74091227,3.59999990,
4.680092,-9.3985,2.1004,-8.2660,55.75016805,48.74091227,3.59999990,
4.698400,0.1551,-3.0878,0.3389,55.75016805,48.74091227,3.59999990,
4.699838,0.1551,-3.0878,0.3389,55.75016805,48.74091227,3.59999990,
4.700433,0.1551,-3.0878,0.3389,55.75016805,48.74091227,3.59999990,
4.717478,0.1551,-3.0878,0.3389,55.75016805,48.74091227,3.59999990,
4.718540,0.1551,-3.0878,0.3389,55.75016805,48.74091227,3.59999990,
4.737062,0.1551,-3.0878,0.3389,55.75016805,48.74091227,3.59999990,
4.738073,0.1551,-3.0878,0.3389,55.75016805,48.74091227,3.59999990,
4.738716,1.6562,-5.6652,4.9184,55.75016805,48.74091227,3.59999990,
4.756773,1.6562,-5.6652,4.9184,55.75016805,48.74091227,3.59999990,
4.758054,1.6562,-5.6652,4.9184,55.75016805,48.74091227,3.59999990,
4.774511,1.6562,-5.6652,4.9184,55.75016805,48.74091227,3.59999990,
4.775590,-2.9667,-3.4810,4.5031,55.75016805,48.74091227,3.59999990,
4.776767,-2.9667,-3.4810,4.5031,55.75016805,48.74091227,3.59999990,
4.794627,-2.9667,-3.4810,4.5031,55.75016805,48.74091227,3.59999990,
4.795629,-2.9667,-3.4810,4.5031,55.75016805,48.74091227,3.59999990,
4.814001,-2.9667,-3.4810,4.5031,55.75016805,48.74091227,3.59999990,
4.815017,-2.8606,-0.5717,-6.4920,55.75016805,48.74091227,3.59999990,
4.815979,-2.8606,-0.5717,-6.4920,55.75016805,48.74091227,3.59999990,
4.832944,-2.8606,-0.5717,-6.4920,55.75016805,48.74091227,3.59999990,
4.834131,-2.8606,-0.5717,-6.4920,55.75016805,48.74091227,3.59999990,
4.852083,0.6183,-3.5174,-2.7093,55.75016805,48.74091227,3.59999990,
4.853664,0.6183,-3.5174,-2.7093,55.75016805,48.74091227,3.59999990,
4.854266,0.6183,-3.5174,-2.7093,55.75016805,48.74091227,3.59999990,
4.871120,0.6183,-3.5174,-2.7093,55.75016805,48.74091227,3.59999990,
4.872289,0.6183,-3.5174,-2.7093,55.75016805,48.74091227,3.59999990,
4.889575,0.6183,-3.5174,-2.7093,55.75016805,48.74091227,3.59999990,
4.890636,0.6183,-3.5174,-2.7093,55.75016805,48.74091227,3.59999990,
4.891215,3.7111,-1.7681,6.2208,55.75016805,48.74091227,3.59999990,
4.909783,3.7111,-1.7681,6.2208,55.75016805,48.74091227,3.59999990,
4.910751,3.7111,-1.7681,6.2208,55.75016805,48.74091227,3.59999990,
4.928773,3.7111,-1.7681,6.2208,55.75016805,48.74091227,3.59999990,
4.929820,4.3529,3.3259,-5.8164,55.75016805,48.74091227,3.59999990,
4.930832,4.3529,3.3259,-5.8164,55.75016805,48.74091227,3.59999990,
4.948246,4.3529,3.3259,-5.8164,55.75016805,48.74091227,3.59999990,
4.949198,4.3529,3.3259,-5.8164,55.75016805,48.74091227,3.59999990,
4.967423,9.1983,1.6572,-9.8247,55.75016805,48.74091227,3.59999990,
4.968817,9.1983,1.6572,-9.8247,55.75016805,48.74091227,3.59999990,
4.969380,9.1983,1.6572,-9.8247,55.75016805,48.74091227,3.59999990,
4.986012,9.1983,1.6572,-9.8247,55.75016805,48.74091227,3.59999990,
4.987015,9.1983,1.6572,-9.8247,55.75016805,48.74091227,3.59999990,
5.005515,10.9762,-3.3185,7.5243,55.75016805,48.74091227,3.59999990,
5.007140,10.9762,-3.3185,7.5243,55.75016805,48.74091227,3.59999990,
5.007783,10.9762,-3.3185,7.5243,55.75016805,48.74091227,3.59999990,
5.025271,10.9762,-3.3185,7.5243,55.75016805,48.74091227,3.59999990,
5.026175,10.9762,-3.3185,7.5243,55.75016805,48.74091227,3.59999990,
5.044086,10.9762,-3.3185,7.5243,55.75016805,48.74091227,3.59999990,
5.045025,10.9762,-3.3185,7.5243,55.75016805,48.74091227,3.59999990,
5.045587,0.6496,3.1287,-3.8849,55.75016805,48.74091227,3.59999990,
5.063513,0.6496,3.1287,-3.8849,55.75016805,48.74091227,3.59999990,
5.064609,0.6496,3.1287,-3.8849,55.75016805,48.74091227,3.59999990,
5.097340,0.6496,3.1287,-3.8849,55.75016805,48.74091227,3.59999990,
5.098369,0.6496,3.1287,-3.8849,55.75016805,48.74091227,3.59999990,
5.098923,8.0715,-4.2111,10.1945,55.75016805,48.74091227,3.59999990,
5.105717,8.0715,-4.2111,10.1945,55.75016805,48.74091227,3.59999990,
5.106528,8.0715,-4.2111,10.1945,55.75016805,48.74091227,3.59999990,
5.123933,8.0715,-4.2111,10.1945,55.75016805,48.74091227,3.59999990,
5.124763,8.0715,-4.2111,10.1945,55.75016805,48.74091227,3.59999990,
5.125307,-2.6658,-4.5937,4.4417,55.75016805,48.74091227,3.59999990,
5.145020,-2.6658,-4.5937,4.4417,55.75016805,48.74091227,3.59999990,
5.145831,-2.6658,-4.5937,4.4417,55.75016805,48.74091227,3.59999990,
5.159275,-2.6658,-4.5937,4.4417,55.75016805,48.74091227,3.59999990,
5.160482,-2.6658,-4.5937,4.4417,55.75014853,48.74085917,3.57999992,
5.161514,-1.0769,-6.8589,6.7122,55.75014853,48.74085917,3.57999992,
5.179744,-1.0769,-6.8589,6.7122,55.75014853,48.74085917,3.57999992,
5.180766,-1.0769,-6.8589,6.7122,55.75014853,48.74085917,3.57999992,
5.198290,-4.1552,-2.6588,-2.7594,55.75014853,48.74085917,3.57999992,
5.199727,-4.1552,-2.6588,-2.7594,55.75014853,48.74085917,3.57999992,
5.200325,-4.1552,-2.6588,-2.7594,55.75014853,48.74085917,3.57999992,
5.217545,-4.1552,-2.6588,-2.7594,55.75014853,48.74085917,3.57999992,
5.218466,-4.1552,-2.6588,-2.7594,55.75014853,48.74085917,3.57999992,
5.235823,-2.4563,-1.2696,-7.8270,55.75014853,48.74085917,3.57999992,
5.237226,-2.4563,-1.2696,-7.8270,55.75014853,48.74085917,3.57999992,
5.237867,-2.4563,-1.2696,-7.8270,55.75014853,48.74085917,3.57999992,
5.255159,-2.4563,-1.2696,-7.8270,55.75014853,48.74085917,3.57999992,
5.256124,-2.4563,-1.2696,-7.8270,55.75014853,48.74085917,3.57999992,
5.275705,-2.4563,-1.2696,-7.8270,55.75014853,48.74085917,3.57999992,
5.276758,-2.4563,-1.2696,-7.8270,55.75014853,48.74085917,3.57999992,
5.277310,-2.8700,0.5301,-5.9483,55.75014853,48.74085917,3.57999992,
5.294748,-2.8700,0.5301,-5.9483,55.75014853,48.74085917,3.57999992,
5.295713,-2.8700,0.5301,-5.9483,55.75014853,48.74085917,3.57999992,
5.313739,-2.8700,0.5301,-5.9483,55.75014853,48.74085917,3.57999992,
5.314666,-2.8700,0.5301,-5.9483,55.75014853,48.74085917,3.57999992,
5.315202,-4.0925,1.7199,-6.0179,55.75014853,48.74085917,3.57999992,
5.332909,-4.0925,1.7199,-6.0179,55.75014853,48.74085917,3.57999992,
5.333969,-4.0925,1.7199,-6.0179,55.75014853,48.74085917,3.57999992,
5.352221,-4.0925,1.7199,-6.0179,55.75014853,48.74085917,3.57999992,
5.353217,-4.0925,1.7199,-6.0179,55.75014853,48.74085917,3.57999992,
5.353800,-0.2528,-1.6025,-2.1113,55.75014853,48.74085917,3.57999992,
5.371494,-0.2528,-1.6025,-2.1113,55.75014853,48.74085917,3.57999992,
5.372574,-0.2528,-1.6025,-2.1113,55.75014853,48.74085917,3.57999992,
5.390667,-0.6844,-5.3987,12.7250,55.75014853,48.74085917,3.57999992,
5.392040,-0.6844,-5.3987,12.7250,55.75014853,48.74085917,3.57999992,
5.392594,-0.6844,-5.3987,12.7250,55.75014853,48.74085917,3.57999992,
5.409927,-0.6844,-5.3987,12.7250,55.75014853,48.74085917,3.57999992,
5.410855,-0.6844,-5.3987,12.7250,55.75014853,48.74085917,3.57999992,
5.429555,-0.6844,-5.3987,12.7250,55.75014853,48.74085917,3.57999992,
5.430374,-0.6844,-5.3987,12.7250,55.75014853,48.74085917,3.57999992,
5.430754,-0.0735,-1.4031,0.6722,55.75014853,48.74085917,3.57999992,
5.448339,-0.0735,-1.4031,0.6722,55.75014853,48.74085917,3.57999992,
5.449322,-0.0735,-1.4031,0.6722,55.75014853,48.74085917,3.57999992,
5.467995,-0.0735,-1.4031,0.6722,55.75014853,48.74085917,3.57999992,
5.469047,-0.0735,-1.4031,0.6722,55.75014853,48.74085917,3.57999992,
5.469814,1.1140,1.3664,0.9437,55.75014853,48.74085917,3.57999992,
5.486477,1.1140,1.3664,0.9437,55.75014853,48.74085917,3.57999992,
5.487450,1.1140,1.3664,0.9437,55.75014853,48.74085917,3.57999992,
5.505543,1.1140,1.3664,0.9437,55.75014853,48.74085917,3.57999992,
5.506637,5.7358,-0.9641,0.8357,55.75014853,48.74085917,3.57999992,
5.507693,5.7358,-0.9641,0.8357,55.75014853,48.74085917,3.57999992,
5.525372,5.7358,-0.9641,0.8357,55.75014853,48.74085917,3.57999992,
5.526422,5.7358,-0.9641,0.8357,55.75014853,48.74085917,3.57999992,
5.545018,5.7358,-0.9641,0.8357,55.75014853,48.74085917,3.57999992,
5.545999,5.7358,-0.9641,0.8357,55.75014853,48.74085917,3.57999992,
5.546611,5.0172,1.7288,0.3858,55.75014853,48.74085917,3.57999992,
5.563902,5.0172,1.7288,0.3858,55.75014853,48.74085917,3.57999992,
5.564850,5.0172,1.7288,0.3858,55.75014853,48.74085917,3.57999992,
5.582999,5.0172,1.7288,0.3858,55.75014853,48.74085917,3.57999992,
5.583981,5.0172,1.7288,0.3858,55.75014853,48.74085917,3.57999992,
5.584517,6.6503,4.4744,-7.3645,55.75014853,48.74085917,3.57999992,
5.601820,6.6503,4.4744,-7.3645,55.75014853,48.74085917,3.57999992,
5.602794,6.6503,4.4744,-7.3645,55.75014853,48.74085917,3.57999992,
5.621292,9.7712,-0.6475,0.5942,55.75014853,48.74085917,3.57999992,
5.622855,9.7712,-0.6475,0.5942,55.75014853,48.74085917,3.57999992,
5.623701,9.7712,-0.6475,0.5942,55.75014853,48.74085917,3.57999992,
5.641230,9.7712,-0.6475,0.5942,55.75014853,48.74085917,3.57999992,
5.642245,9.7712,-0.6475,0.5942,55.75014853,48.74085917,3.57999992,
5.660128,9.7712,-0.6475,0.5942,55.75014853,48.74085917,3.57999992,
5.661161,3.1347,-1.6193,-2.1801,55.75014853,48.74085917,3.57999992,
5.662163,3.1347,-1.6193,-2.1801,55.75014853,48.74085917,3.57999992,
5.679838,3.1347,-1.6193,-2.1801,55.75014853,48.74085917,3.57999992,
5.680889,3.1347,-1.6193,-2.1801,55.75014853,48.74085917,3.57999992,
5.698890,3.1347,-1.6193,-2.1801,55.75014853,48.74085917,3.57999992,
5.700053,6.6682,-4.9339,6.0164,55.75014853,48.74085917,3.57999992,
5.701073,6.6682,-4.9339,6.0164,55.75014853,48.74085917,3.57999992,
5.717515,6.6682,-4.9339,6.0164,55.75014853,48.74085917,3.57999992,
5.718312,6.6682,-4.9339,6.0164,55.75014853,48.74085917,3.57999992,
5.737216,6.6682,-4.9339,6.0164,55.75014853,48.74085917,3.57999992,
5.738463,6.6682,-4.9339,6.0164,55.75014853,48.74085917,3.57999992,
5.739132,2.7663,-4.9199,3.2883,55.75014853,48.74085917,3.57999992,
5.755738,2.7663,-4.9199,3.2883,55.75014853,48.74085917,3.57999992,
5.756897,2.7663,-4.9199,3.2883,55.75014853,48.74085917,3.57999992,
5.775791,2.7663,-4.9199,3.2883,55.75014853,48.74085917,3.57999992,
5.776942,2.7663,-4.9199,3.2883,55.75014853,48.74085917,3.57999992,
5.777522,-0.3732,-4.9895,6.4032,55.75014853,48.74085917,3.57999992,
5.794999,-0.3732,-4.9895,6.4032,55.75014853,48.74085917,3.57999992,
5.796067,-0.3732,-4.9895,6.4032,55.75014853,48.74085917,3.57999992,
5.814161,-2.3184,-0.8106,-2.6064,55.75014853,48.74085917,3.57999992,
5.815638,-2.3184,-0.8106,-2.6064,55.75014853,48.74085917,3.57999992,
5.816224,-2.3184,-0.8106,-2.6064,55.75014853,48.74085917,3.57999992,
5.833320,-2.3184,-0.8106,-2.6064,55.75014853,48.74085917,3.57999992,
5.834377,-2.3184,-0.8106,-2.6064,55.75014853,48.74085917,3.57999992,
5.852046,-2.3184,-0.8106,-2.6064,55.75014853,48.74085917,3.57999992,
5.853213,-2.3184,-0.8106,-2.6064,55.75014853,48.74085917,3.57999992,
5.853824,-1.0408,0.1967,-4.0069,55.75014853,48.74085917,3.57999992,
5.871057,-1.0408,0.1967,-4.0069,55.75014853,48.74085917,3.57999992,
5.872247,-1.0408,0.1967,-4.0069,55.75014853,48.74085917,3.57999992,
5.891440,-1.0408,0.1967,-4.0069,55.75014853,48.74085917,3.57999992,
5.892423,-1.0408,0.1967,-4.0069,55.75014853,48.74085917,3.57999992,
5.893066,0.9075,-2.3923,0.6875,55.75014853,48.74085917,3.57999992,
5.910232,0.9075,-2.3923,0.6875,55.75014853,48.74085917,3.57999992,
5.911287,0.9075,-2.3923,0.6875,55.75014853,48.74085917,3.57999992,
5.929492,0.9075,-2.3923,0.6875,55.75014853,48.74085917,3.57999992,
5.930584,0.9075,-2.3923,0.6875,55.75014853,48.74085917,3.57999992,
5.931138,-4.1067,0.7564,-5.4781,55.75014853,48.74085917,3.57999992,
5.948738,-4.1067,0.7564,-5.4781,55.75014853,48.74085917,3.57999992,
5.949844,-4.1067,0.7564,-5.4781,55.75014853,48.74085917,3.57999992,
5.968265,-4.1067,0.7564,-5.4781,55.75014853,48.74085917,3.57999992,
5.969327,-4.1067,0.7564,-5.4781,55.75014853,48.74085917,3.57999992,
5.970105,-2.2552,-0.7875,-1.1887,55.75014853,48.74085917,3.57999992,
5.986600,-2.2552,-0.7875,-1.1887,55.75014853,48.74085917,3.57999992,
5.987988,-2.2552,-0.7875,-1.1887,55.75014853,48.74085917,3.57999992,
6.005325,-2.2552,-0.7875,-1.1887,55.75014853,48.74085917,3.57999992,
6.006480,-2.2552,-0.7875,-1.1887,55.75014853,48.74085917,3.57999992,
6.007118,0.5590,-3.3263,4.1695,55.75014853,48.74085917,3.57999992,
6.026167,0.5590,-3.3263,4.1695,55.75014853,48.74085917,3.57999992,
6.027427,0.5590,-3.3263,4.1695,55.75014853,48.74085917,3.57999992,
6.045966,0.5590,-3.3263,4.1695,55.75014853,48.74085917,3.57999992,
6.047123,0.5590,-3.3263,4.1695,55.75014853,48.74085917,3.57999992,
6.047693,-0.7757,-2.8828,6.3522,55.75014853,48.74085917,3.57999992,
6.064936,-0.7757,-2.8828,6.3522,55.75014853,48.74085917,3.57999992,
6.065956,-0.7757,-2.8828,6.3522,55.75014853,48.74085917,3.57999992,
6.083404,-0.7757,-2.8828,6.3522,55.75014853,48.74085917,3.57999992,
6.084143,-0.7757,-2.8828,6.3522,55.75014853,48.74085917,3.57999992,
6.084739,-0.8031,-0.2087,-0.4941,55.75014853,48.74085917,3.57999992,
6.102223,-0.8031,-0.2087,-0.4941,55.75014853,48.74085917,3.57999992,
6.103254,-0.8031,-0.2087,-0.4941,55.75014853,48.74085917,3.57999992,
6.123642,-0.8031,-0.2087,-0.4941,55.75014853,48.74085917,3.57999992,
6.124260,-0.8031,-0.2087,-0.4941,55.75014853,48.74085917,3.57999992,
6.124678,1.7543,0.6529,-0.8305,55.75014853,48.74085917,3.57999992,
6.141782,1.7543,0.6529,-0.8305,55.75014853,48.74085917,3.57999992,
6.142744,1.7543,0.6529,-0.8305,55.75013702,48.74080330,3.34999990,
6.160631,1.1562,3.4608,-2.8555,55.75013702,48.74080330,3.34999990,
6.162211,1.1562,3.4608,-2.8555,55.75013702,48.74080330,3.34999990,
6.162781,1.1562,3.4608,-2.8555,55.75013702,48.74080330,3.34999990,
6.179511,1.1562,3.4608,-2.8555,55.75013702,48.74080330,3.34999990,
6.180602,1.1562,3.4608,-2.8555,55.75013702,48.74080330,3.34999990,
6.199506,1.1562,3.4608,-2.8555,55.75013702,48.74080330,3.34999990,
6.200806,6.8197,-0.4572,0.4006,55.75013702,48.74080330,3.34999990,
6.201839,6.8197,-0.4572,0.4006,55.75013702,48.74080330,3.34999990,
6.217957,6.8197,-0.4572,0.4006,55.75013702,48.74080330,3.34999990,
6.219002,6.8197,-0.4572,0.4006,55.75013702,48.74080330,3.34999990,
6.237465,6.8197,-0.4572,0.4006,55.75013702,48.74080330,3.34999990,
6.238671,6.8197,-0.4572,0.4006,55.75013702,48.74080330,3.34999990,
6.239288,5.9042,-1.3442,-4.7520,55.75013702,48.74080330,3.34999990,
6.256761,5.9042,-1.3442,-4.7520,55.75013702,48.74080330,3.34999990,
6.257791,5.9042,-1.3442,-4.7520,55.75013702,48.74080330,3.34999990,
6.276075,5.9042,-1.3442,-4.7520,55.75013702,48.74080330,3.34999990,
6.277227,5.9042,-1.3442,-4.7520,55.75013702,48.74080330,3.34999990,
6.277813,3.9947,0.2686,-3.4064,55.75013702,48.74080330,3.34999990,
6.295545,3.9947,0.2686,-3.4064,55.75013702,48.74080330,3.34999990,
6.296668,3.9947,0.2686,-3.4064,55.75013702,48.74080330,3.34999990,
6.314558,11.6027,0.9811,-3.7784,55.75013702,48.74080330,3.34999990,
6.316054,11.6027,0.9811,-3.7784,55.75013702,48.74080330,3.34999990,
6.316697,11.6027,0.9811,-3.7784,55.75013702,48.74080330,3.34999990,
6.334250,11.6027,0.9811,-3.7784,55.75013702,48.74080330,3.34999990,
6.335326,11.6027,0.9811,-3.7784,55.75013702,48.74080330,3.34999990,
6.352251,7.6230,1.3829,5.9698,55.75013702,48.74080330,3.34999990,
6.354361,7.6230,1.3829,5.9698,55.75013702,48.74080330,3.34999990,
6.355109,7.6230,1.3829,5.9698,55.75013702,48.74080330,3.34999990,
6.373168,7.6230,1.3829,5.9698,55.75013702,48.74080330,3.34999990,
6.374203,7.6230,1.3829,5.9698,55.75013702,48.74080330,3.34999990,
6.391736,7.6230,1.3829,5.9698,55.75013702,48.74080330,3.34999990,
6.392797,8.5833,-4.8354,8.4533,55.75013702,48.74080330,3.34999990,
6.393994,8.5833,-4.8354,8.4533,55.75013702,48.74080330,3.34999990,
6.410831,8.5833,-4.8354,8.4533,55.75013702,48.74080330,3.34999990,
6.411872,8.5833,-4.8354,8.4533,55.75013702,48.74080330,3.34999990,
6.429999,-0.7548,-4.5145,7.5692,55.75013702,48.74080330,3.34999990,
6.431501,-0.7548,-4.5145,7.5692,55.75013702,48.74080330,3.34999990,
6.432065,-0.7548,-4.5145,7.5692,55.75013702,48.74080330,3.34999990,
6.449058,-0.7548,-4.5145,7.5692,55.75013702,48.74080330,3.34999990,
6.449980,-0.7548,-4.5145,7.5692,55.75013702,48.74080330,3.34999990,
6.468927,-0.7548,-4.5145,7.5692,55.75013702,48.74080330,3.34999990,
6.470213,-1.8532,-7.5526,3.7723,55.75013702,48.74080330,3.34999990,
6.471315,-1.8532,-7.5526,3.7723,55.75013702,48.74080330,3.34999990,
6.486766,-1.8532,-7.5526,3.7723,55.75013702,48.74080330,3.34999990,
6.487745,-1.8532,-7.5526,3.7723,55.75013702,48.74080330,3.34999990,
6.506675,-13.8434,-3.1129,-1.1197,55.75013702,48.74080330,3.34999990,
6.508340,-13.8434,-3.1129,-1.1197,55.75013702,48.74080330,3.34999990,
6.509086,-13.8434,-3.1129,-1.1197,55.75013702,48.74080330,3.34999990,
6.525997,-13.8434,-3.1129,-1.1197,55.75013702,48.74080330,3.34999990,
6.527081,-13.8434,-3.1129,-1.1197,55.75013702,48.74080330,3.34999990,
6.545033,-4.4387,-3.2708,2.2660,55.75013702,48.74080330,3.34999990,
6.546547,-4.4387,-3.2708,2.2660,55.75013702,48.74080330,3.34999990,
6.547165,-4.4387,-3.2708,2.2660,55.75013702,48.74080330,3.34999990,
6.564548,-4.4387,-3.2708,2.2660,55.75013702,48.74080330,3.34999990,
6.565282,-4.4387,-3.2708,2.2660,55.75013702,48.74080330,3.34999990,
6.583933,-4.4387,-3.2708,2.2660,55.75013702,48.74080330,3.34999990,
6.584907,-4.4020,-1.9380,-12.4550,55.75013702,48.74080330,3.34999990,
6.586146,-4.4020,-1.9380,-12.4550,55.75013702,48.74080330,3.34999990,
6.603859,-4.4020,-1.9380,-12.4550,55.75013702,48.74080330,3.34999990,
6.604960,-4.4020,-1.9380,-12.4550,55.75013702,48.74080330,3.34999990,
6.621522,2.8210,-4.4647,16.2391,55.75013702,48.74080330,3.34999990,
6.623251,2.8210,-4.4647,16.2391,55.75013702,48.74080330,3.34999990,
6.623877,2.8210,-4.4647,16.2391,55.75013702,48.74080330,3.34999990,
6.641663,2.8210,-4.4647,16.2391,55.75013702,48.74080330,3.34999990,
6.642496,2.8210,-4.4647,16.2391,55.75013702,48.74080330,3.34999990,
6.660849,2.8210,-4.4647,16.2391,55.75013702,48.74080330,3.34999990,
6.661897,2.8210,-4.4647,16.2391,55.75013702,48.74080330,3.34999990,
6.662440,1.3859,3.2034,-5.6101,55.75013702,48.74080330,3.34999990,
6.679879,1.3859,3.2034,-5.6101,55.75013702,48.74080330,3.34999990,
6.680967,1.3859,3.2034,-5.6101,55.75013702,48.74080330,3.34999990,
6.698888,1.3859,3.2034,-5.6101,55.75013702,48.74080330,3.34999990,
6.699830,1.3859,3.2034,-5.6101,55.75013702,48.74080330,3.34999990,
6.700459,3.5310,-1.5564,-10.6633,55.75013702,48.74080330,3.34999990,
6.718701,3.5310,-1.5564,-10.6633,55.75013702,48.74080330,3.34999990,
6.720151,3.5310,-1.5564,-10.6633,55.75013702,48.74080330,3.34999990,
6.737096,3.5310,-1.5564,-10.6633,55.75013702,48.74080330,3.34999990,
6.738349,2.3005,-2.8487,0.2907,55.75013702,48.74080330,3.34999990,
6.739407,2.3005,-2.8487,0.2907,55.75013702,48.74080330,3.34999990,
6.756779,2.3005,-2.8487,0.2907,55.75013702,48.74080330,3.34999990,
6.757777,2.3005,-2.8487,0.2907,55.75013702,48.74080330,3.34999990,
6.776529,2.3005,-2.8487,0.2907,55.75013702,48.74080330,3.34999990,
6.777605,2.3005,-2.8487,0.2907,55.75013702,48.74080330,3.34999990,
6.778149,3.7941,2.3492,-2.0021,55.75013702,48.74080330,3.34999990,
6.795299,3.7941,2.3492,-2.0021,55.75013702,48.74080330,3.34999990,
6.796379,3.7941,2.3492,-2.0021,55.75013702,48.74080330,3.34999990,
6.814550,3.7941,2.3492,-2.0021,55.75013702,48.74080330,3.34999990,
6.815265,12.2581,-2.3397,-4.0233,55.75013702,48.74080330,3.34999990,
6.815973,12.2581,-2.3397,-4.0233,55.75013702,48.74080330,3.34999990,
6.833310,12.2581,-2.3397,-4.0233,55.75013702,48.74080330,3.34999990,
6.833963,12.2581,-2.3397,-4.0233,55.75013702,48.74080330,3.34999990,
6.852220,12.2581,-2.3397,-4.0233,55.75013702,48.74080330,3.34999990,
6.853437,12.2581,-2.3397,-4.0233,55.75013702,48.74080330,3.34999990,
6.854048,8.8481,0.0857,-1.6027,55.75013702,48.74080330,3.34999990,
6.872047,8.8481,0.0857,-1.6027,55.75013702,48.74080330,3.34999990,
6.873063,8.8481,0.0857,-1.6027,55.75013702,48.74080330,3.34999990,
6.891409,8.8481,0.0857,-1.6027,55.75013702,48.74080330,3.34999990,
6.892391,8.8481,0.0857,-1.6027,55.75013702,48.74080330,3.34999990,
6.892997,6.3943,2.5859,-6.1151,55.75013702,48.74080330,3.34999990,
6.910641,6.3943,2.5859,-6.1151,55.75013702,48.74080330,3.34999990,
6.911618,6.3943,2.5859,-6.1151,55.75013702,48.74080330,3.34999990,
6.930219,6.3943,2.5859,-6.1151,55.75013702,48.74080330,3.34999990,
6.931276,6.3943,2.5859,-6.1151,55.75013702,48.74080330,3.34999990,
6.931832,11.8099,-2.1951,7.3420,55.75013702,48.74080330,3.34999990,
6.949971,11.8099,-2.1951,7.3420,55.75013702,48.74080330,3.34999990,
6.951162,11.8099,-2.1951,7.3420,55.75013702,48.74080330,3.34999990,
6.968174,11.8099,-2.1951,7.3420,55.75013702,48.74080330,3.34999990,
6.969526,11.8099,-2.1951,7.3420,55.75013702,48.74080330,3.34999990,
6.970365,6.4763,-6.3156,13.9025,55.75013702,48.74080330,3.34999990,
6.988274,6.4763,-6.3156,13.9025,55.75013702,48.74080330,3.34999990,
6.989281,6.4763,-6.3156,13.9025,55.75013702,48.74080330,3.34999990,
7.007179,2.1056,-6.9707,11.6506,55.75013702,48.74080330,3.34999990,
7.008676,2.1056,-6.9707,11.6506,55.75013702,48.74080330,3.34999990,
7.009281,2.1056,-6.9707,11.6506,55.75013702,48.74080330,3.34999990,
7.026956,2.1056,-6.9707,11.6506,55.75013702,48.74080330,3.34999990,
7.028005,2.1056,-6.9707,11.6506,55.75013702,48.74080330,3.34999990,
7.045515,2.1056,-6.9707,11.6506,55.75013702,48.74080330,3.34999990,
7.046551,2.1056,-6.9707,11.6506,55.75013702,48.74080330,3.34999990,
7.047113,-4.4719,-0.5330,-1.9551,55.75013702,48.74080330,3.34999990,
7.064723,-4.4719,-0.5330,-1.9551,55.75013702,48.74080330,3.34999990,
7.065658,-4.4719,-0.5330,-1.9551,55.75013702,48.74080330,3.34999990,
7.095050,-4.4719,-0.5330,-1.9551,55.75013702,48.74080330,3.34999990,
7.096144,-4.4719,-0.5330,-1.9551,55.75013702,48.74080330,3.34999990,
7.096821,-2.8235,-0.5292,-3.3958,55.75013702,48.74080330,3.34999990,
7.104205,-2.8235,-0.5292,-3.3958,55.75013702,48.74080330,3.34999990,
7.104958,-2.8235,-0.5292,-3.3958,55.75013702,48.74080330,3.34999990,
7.121967,-2.8235,-0.5292,-3.3958,55.75013702,48.74080330,3.34999990,
7.122746,-5.8930,-1.5006,-4.3834,55.75013702,48.74080330,3.34999990,
7.123867,-5.8930,-1.5006,-4.3834,55.75013702,48.74080330,3.34999990,
7.141809,-5.8930,-1.5006,-4.3834,55.75013702,48.74080330,3.34999990,
7.142525,-5.8930,-1.5006,-4.3834,55.75013839,48.74075450,2.63000011,
7.161119,-5.8930,-1.5006,-4.3834,55.75013839,48.74075450,2.63000011,
7.162114,-5.8930,-1.5006,-4.3834,55.75013839,48.74075450,2.63000011,
7.162652,-5.1639,-5.4011,2.4012,55.75013839,48.74075450,2.63000011,
7.180082,-5.1639,-5.4011,2.4012,55.75013839,48.74075450,2.63000011,
7.181084,-5.1639,-5.4011,2.4012,55.75013839,48.74075450,2.63000011,
7.198972,-5.1639,-5.4011,2.4012,55.75013839,48.74075450,2.63000011,
7.200137,-5.1639,-5.4011,2.4012,55.75013839,48.74075450,2.63000011,
7.200775,-2.9939,-1.1330,-4.3080,55.75013839,48.74075450,2.63000011,
7.217882,-2.9939,-1.1330,-4.3080,55.75013839,48.74075450,2.63000011,
7.218852,-2.9939,-1.1330,-4.3080,55.75013839,48.74075450,2.63000011,
7.237678,0.5038,1.6897,-2.2742,55.75013839,48.74075450,2.63000011,
7.239144,0.5038,1.6897,-2.2742,55.75013839,48.74075450,2.63000011,
7.239751,0.5038,1.6897,-2.2742,55.75013839,48.74075450,2.63000011,
7.257446,0.5038,1.6897,-2.2742,55.75013839,48.74075450,2.63000011,
7.258499,0.5038,1.6897,-2.2742,55.75013839,48.74075450,2.63000011,
7.276745,0.5038,1.6897,-2.2742,55.75013839,48.74075450,2.63000011,
7.277773,0.5038,1.6897,-2.2742,55.75013839,48.74075450,2.63000011,
7.278337,1.8276,0.8232,2.3456,55.75013839,48.74075450,2.63000011,
7.295970,1.8276,0.8232,2.3456,55.75013839,48.74075450,2.63000011,
7.297149,1.8276,0.8232,2.3456,55.75013839,48.74075450,2.63000011,
7.314735,1.8276,0.8232,2.3456,55.75013839,48.74075450,2.63000011,
7.315488,2.0559,1.4050,-0.4615,55.75013839,48.74075450,2.63000011,
7.316573,2.0559,1.4050,-0.4615,55.75013839,48.74075450,2.63000011,
7.334426,2.0559,1.4050,-0.4615,55.75013839,48.74075450,2.63000011,
7.335518,2.0559,1.4050,-0.4615,55.75013839,48.74075450,2.63000011,
7.353092,2.0559,1.4050,-0.4615,55.75013839,48.74075450,2.63000011,
7.354182,2.2697,1.2482,2.5730,55.75013839,48.74075450,2.63000011,
7.355220,2.2697,1.2482,2.5730,55.75013839,48.74075450,2.63000011,
7.373232,2.2697,1.2482,2.5730,55.75013839,48.74075450,2.63000011,
7.374385,2.2697,1.2482,2.5730,55.75013839,48.74075450,2.63000011,
7.391946,2.2697,1.2482,2.5730,55.75013839,48.74075450,2.63000011,
7.393091,2.2697,1.2482,2.5730,55.75013839,48.74075450,2.63000011,
7.393674,8.7103,-0.4604,1.8322,55.75013839,48.74075450,2.63000011,
7.411475,8.7103,-0.4604,1.8322,55.75013839,48.74075450,2.63000011,
7.412546,8.7103,-0.4604,1.8322,55.75013839,48.74075450,2.63000011,
7.430428,8.7103,-0.4604,1.8322,55.75013839,48.74075450,2.63000011,
7.431482,8.7103,-0.4604,1.8322,55.75013839,48.74075450,2.63000011,
7.432044,8.0293,-0.4353,-2.1262,55.75013839,48.74075450,2.63000011,
7.448849,8.0293,-0.4353,-2.1262,55.75013839,48.74075450,2.63000011,
7.449872,8.0293,-0.4353,-2.1262,55.75013839,48.74075450,2.63000011,
7.467910,8.0293,-0.4353,-2.1262,55.75013839,48.74075450,2.63000011,
7.468941,8.0293,-0.4353,-2.1262,55.75013839,48.74075450,2.63000011,
7.469589,9.3234,-0.3741,-0.4008,55.75013839,48.74075450,2.63000011,
7.488181,9.3234,-0.3741,-0.4008,55.75013839,48.74075450,2.63000011,
7.489117,9.3234,-0.3741,-0.4008,55.75013839,48.74075450,2.63000011,
7.507486,9.3234,-0.3741,-0.4008,55.75013839,48.74075450,2.63000011,
7.508438,9.3234,-0.3741,-0.4008,55.75013839,48.74075450,2.63000011,
7.508996,6.3745,0.0937,2.6949,55.75013839,48.74075450,2.63000011,
7.526409,6.3745,0.0937,2.6949,55.75013839,48.74075450,2.63000011,
7.527393,6.3745,0.0937,2.6949,55.75013839,48.74075450,2.63000011,
7.545415,6.3745,0.0937,2.6949,55.75013839,48.74075450,2.63000011,
7.546500,6.3745,0.0937,2.6949,55.75013839,48.74075450,2.63000011,
7.547063,7.1977,-0.4003,1.2397,55.75013839,48.74075450,2.63000011,
7.564536,7.1977,-0.4003,1.2397,55.75013839,48.74075450,2.63000011,
7.565464,7.1977,-0.4003,1.2397,55.75013839,48.74075450,2.63000011,
7.583529,1.4981,-2.6502,3.5428,55.75013839,48.74075450,2.63000011,
7.584904,1.4981,-2.6502,3.5428,55.75013839,48.74075450,2.63000011,
7.585474,1.4981,-2.6502,3.5428,55.75013839,48.74075450,2.63000011,
7.603369,1.4981,-2.6502,3.5428,55.75013839,48.74075450,2.63000011,
7.604301,1.4981,-2.6502,3.5428,55.75013839,48.74075450,2.63000011,
7.622583,1.4981,-2.6502,3.5428,55.75013839,48.74075450,2.63000011,
7.623614,1.4981,-2.6502,3.5428,55.75013839,48.74075450,2.63000011,
7.624152,-0.5489,-5.6307,5.1959,55.75013839,48.74075450,2.63000011,
7.641773,-0.5489,-5.6307,5.1959,55.75013839,48.74075450,2.63000011,
7.642777,-0.5489,-5.6307,5.1959,55.75013839,48.74075450,2.63000011,
7.660895,-0.5489,-5.6307,5.1959,55.75013839,48.74075450,2.63000011,
7.661876,-6.0609,-0.3600,-6.0477,55.75013839,48.74075450,2.63000011,
7.662822,-6.0609,-0.3600,-6.0477,55.75013839,48.74075450,2.63000011,
7.680180,-6.0609,-0.3600,-6.0477,55.75013839,48.74075450,2.63000011,
7.680945,-6.0609,-0.3600,-6.0477,55.75013839,48.74075450,2.63000011,
7.699580,-6.0609,-0.3600,-6.0477,55.75013839,48.74075450,2.63000011,
7.700769,-1.4840,-2.3139,-1.1400,55.75013839,48.74075450,2.63000011,
7.701825,-1.4840,-2.3139,-1.1400,55.75013839,48.74075450,2.63000011,
7.717916,-1.4840,-2.3139,-1.1400,55.75013839,48.74075450,2.63000011,
7.718857,-1.4840,-2.3139,-1.1400,55.75013839,48.74075450,2.63000011,
7.738024,-1.4840,-2.3139,-1.1400,55.75013839,48.74075450,2.63000011,
7.738977,-3.6095,-0.7920,-3.3022,55.75013839,48.74075450,2.63000011,
7.740059,-3.6095,-0.7920,-3.3022,55.75013839,48.74075450,2.63000011,
7.757018,-3.6095,-0.7920,-3.3022,55.75013839,48.74075450,2.63000011,
7.757973,-3.6095,-0.7920,-3.3022,55.75013839,48.74075450,2.63000011,
7.776263,-3.6095,-0.7920,-3.3022,55.75013839,48.74075450,2.63000011,
7.777284,-3.6095,-0.7920,-3.3022,55.75013839,48.74075450,2.63000011,
7.777841,-2.6655,0.9946,-5.2473,55.75013839,48.74075450,2.63000011,
7.795761,-2.6655,0.9946,-5.2473,55.75013839,48.74075450,2.63000011,
7.796824,-2.6655,0.9946,-5.2473,55.75013839,48.74075450,2.63000011,
7.814521,-2.6655,0.9946,-5.2473,55.75013839,48.74075450,2.63000011,
7.815474,-2.6655,0.9946,-5.2473,55.75013839,48.74075450,2.63000011,
7.816061,-1.1291,0.1886,1.2063,55.75013839,48.74075450,2.63000011,
7.835735,-1.1291,0.1886,1.2063,55.75013839,48.74075450,2.63000011,
7.836808,-1.1291,0.1886,1.2063,55.75013839,48.74075450,2.63000011,
7.854156,-1.1291,0.1886,1.2063,55.75013839,48.74075450,2.63000011,
7.855108,-1.1291,0.1886,1.2063,55.75013839,48.74075450,2.63000011,
7.855663,3.0617,-2.7502,8.2810,55.75013839,48.74075450,2.63000011,
7.873535,3.0617,-2.7502,8.2810,55.75013839,48.74075450,2.63000011,
7.874498,3.0617,-2.7502,8.2810,55.75013839,48.74075450,2.63000011,
7.891994,3.0617,-2.7502,8.2810,55.75013839,48.74075450,2.63000011,
7.893082,3.0617,-2.7502,8.2810,55.75013839,48.74075450,2.63000011,
7.893639,5.5501,-0.0540,2.9281,55.75013839,48.74075450,2.63000011,
7.911277,5.5501,-0.0540,2.9281,55.75013839,48.74075450,2.63000011,
7.912261,5.5501,-0.0540,2.9281,55.75013839,48.74075450,2.63000011,
7.930954,5.5501,-0.0540,2.9281,55.75013839,48.74075450,2.63000011,
7.932120,5.5501,-0.0540,2.9281,55.75013839,48.74075450,2.63000011,
7.932755,1.7460,5.3006,-0.2006,55.75013839,48.74075450,2.63000011,
7.949393,1.7460,5.3006,-0.2006,55.75013839,48.74075450,2.63000011,
7.950723,1.7460,5.3006,-0.2006,55.75013839,48.74075450,2.63000011,
7.969304,1.7460,5.3006,-0.2006,55.75013839,48.74075450,2.63000011,
7.970344,1.7460,5.3006,-0.2006,55.75013839,48.74075450,2.63000011,
7.970896,2.4178,5.3704,-4.5262,55.75013839,48.74075450,2.63000011,
7.988150,2.4178,5.3704,-4.5262,55.75013839,48.74075450,2.63000011,
7.989095,2.4178,5.3704,-4.5262,55.75013839,48.74075450,2.63000011,
8.007818,2.4178,5.3704,-4.5262,55.75013839,48.74075450,2.63000011,
8.008869,2.4178,5.3704,-4.5262,55.75013839,48.74075450,2.63000011,
8.009428,6.7737,0.1878,-4.5214,55.75013839,48.74075450,2.63000011,
8.027621,6.7737,0.1878,-4.5214,55.75013839,48.74075450,2.63000011,
8.028668,6.7737,0.1878,-4.5214,55.75013839,48.74075450,2.63000011,
8.045765,6.7737,0.1878,-4.5214,55.75013839,48.74075450,2.63000011,
8.046626,6.7737,0.1878,-4.5214,55.75013839,48.74075450,2.63000011,
8.047138,6.7203,-0.0114,0.2779,55.75013839,48.74075450,2.63000011,
8.065430,6.7203,-0.0114,0.2779,55.75013839,48.74075450,2.63000011,
8.066623,6.7203,-0.0114,0.2779,55.75013839,48.74075450,2.63000011,
8.096496,6.7203,-0.0114,0.2779,55.75013839,48.74075450,2.63000011,
8.097497,6.7203,-0.0114,0.2779,55.75013839,48.74075450,2.63000011,
8.098042,12.7134,-1.8006,-0.5596,55.75013839,48.74075450,2.63000011,
8.104679,12.7134,-1.8006,-0.5596,55.75013839,48.74075450,2.63000011,
8.105361,12.7134,-1.8006,-0.5596,55.75013839,48.74075450,2.63000011,
8.123878,12.7134,-1.8006,-0.5596,55.75013839,48.74075450,2.63000011,
8.124623,12.7134,-1.8006,-0.5596,55.75013839,48.74075450,2.63000011,
8.125165,3.2900,0.8937,-1.3892,55.75013839,48.74075450,2.63000011,
8.141954,3.2900,0.8937,-1.3892,55.75013839,48.74075450,2.63000011,
8.143092,3.2900,0.8937,-1.3892,55.75014804,48.74072021,1.96000004,
8.161480,3.2900,0.8937,-1.3892,55.75014804,48.74072021,1.96000004,
8.162473,3.2900,0.8937,-1.3892,55.75014804,48.74072021,1.96000004,
8.163093,6.8140,-2.4808,3.7062,55.75014804,48.74072021,1.96000004,
8.180876,6.8140,-2.4808,3.7062,55.75014804,48.74072021,1.96000004,
8.182009,6.8140,-2.4808,3.7062,55.75014804,48.74072021,1.96000004,
8.200111,6.8140,-2.4808,3.7062,55.75014804,48.74072021,1.96000004,
8.201326,1.3550,-3.0244,4.4088,55.75014804,48.74072021,1.96000004,
8.202358,1.3550,-3.0244,4.4088,55.75014804,48.74072021,1.96000004,
8.219451,1.3550,-3.0244,4.4088,55.75014804,48.74072021,1.96000004,
8.220578,1.3550,-3.0244,4.4088,55.75014804,48.74072021,1.96000004,
8.238389,0.1391,-4.4060,5.1715,55.75014804,48.74072021,1.96000004,
8.239872,0.1391,-4.4060,5.1715,55.75014804,48.74072021,1.96000004,
8.240459,0.1391,-4.4060,5.1715,55.75014804,48.74072021,1.96000004,
8.258124,0.1391,-4.4060,5.1715,55.75014804,48.74072021,1.96000004,
8.259180,0.1391,-4.4060,5.1715,55.75014804,48.74072021,1.96000004,
8.277096,-3.2628,-1.2503,-1.8833,55.75014804,48.74072021,1.96000004,
8.278609,-3.2628,-1.2503,-1.8833,55.75014804,48.74072021,1.96000004,
8.279170,-3.2628,-1.2503,-1.8833,55.75014804,48.74072021,1.96000004,
8.295600,-3.2628,-1.2503,-1.8833,55.75014804,48.74072021,1.96000004,
8.296415,-3.2628,-1.2503,-1.8833,55.75014804,48.74072021,1.96000004,
8.315833,-3.2628,-1.2503,-1.8833,55.75014804,48.74072021,1.96000004,
8.317167,-3.2628,-1.2503,-1.8833,55.75014804,48.74072021,1.96000004,
8.317789,-4.5723,0.0374,-3.4702,55.75014804,48.74072021,1.96000004,
8.334205,-4.5723,0.0374,-3.4702,55.75014804,48.74072021,1.96000004,
8.335281,-4.5723,0.0374,-3.4702,55.75014804,48.74072021,1.96000004,
8.354892,-4.5723,0.0374,-3.4702,55.75014804,48.74072021,1.96000004,
8.356048,-4.5723,0.0374,-3.4702,55.75014804,48.74072021,1.96000004,
8.356778,-2.9717,-1.7197,-0.9693,55.75014804,48.74072021,1.96000004,
8.372345,-2.9717,-1.7197,-0.9693,55.75014804,48.74072021,1.96000004,
8.373506,-2.9717,-1.7197,-0.9693,55.75014804,48.74072021,1.96000004,
8.392782,-2.9717,-1.7197,-0.9693,55.75014804,48.74072021,1.96000004,
8.393969,-2.9717,-1.7197,-0.9693,55.75014804,48.74072021,1.96000004,
8.394557,-1.5468,-0.5127,-4.2181,55.75014804,48.74072021,1.96000004,
8.411738,-1.5468,-0.5127,-4.2181,55.75014804,48.74072021,1.96000004,
8.412710,-1.5468,-0.5127,-4.2181,55.75014804,48.74072021,1.96000004,
8.430524,-1.5468,-0.5127,-4.2181,55.75014804,48.74072021,1.96000004,
8.431581,-1.5468,-0.5127,-4.2181,55.75014804,48.74072021,1.96000004,
8.432215,-1.1566,2.3283,-1.7117,55.75014804,48.74072021,1.96000004,
8.449460,-1.1566,2.3283,-1.7117,55.75014804,48.74072021,1.96000004,
8.450525,-1.1566,2.3283,-1.7117,55.75014804,48.74072021,1.96000004,
8.469178,-1.1566,2.3283,-1.7117,55.75014804,48.74072021,1.96000004,
8.470230,-1.1566,2.3283,-1.7117,55.75014804,48.74072021,1.96000004,
8.470762,0.6400,1.4473,3.7492,55.75014804,48.74072021,1.96000004,
8.488605,0.6400,1.4473,3.7492,55.75014804,48.74072021,1.96000004,
8.489538,0.6400,1.4473,3.7492,55.75014804,48.74072021,1.96000004,
8.507831,0.6400,1.4473,3.7492,55.75014804,48.74072021,1.96000004,
8.508864,0.6400,1.4473,3.7492,55.75014804,48.74072021,1.96000004,
8.509431,-2.1261,2.4922,0.4320,55.75014804,48.74072021,1.96000004,
8.527053,-2.1261,2.4922,0.4320,55.75014804,48.74072021,1.96000004,
8.528133,-2.1261,2.4922,0.4320,55.75014804,48.74072021,1.96000004,
8.546608,-2.1261,2.4922,0.4320,55.75014804,48.74072021,1.96000004,
8.547703,-2.1261,2.4922,0.4320,55.75014804,48.74072021,1.96000004,
8.548322,1.7707,0.2245,4.5265,55.75014804,48.74072021,1.96000004,
8.564987,1.7707,0.2245,4.5265,55.75014804,48.74072021,1.96000004,
8.566514,1.7707,0.2245,4.5265,55.75014804,48.74072021,1.96000004,
8.583830,1.7707,0.2245,4.5265,55.75014804,48.74072021,1.96000004,
8.584938,1.7707,0.2245,4.5265,55.75014804,48.74072021,1.96000004,
8.585516,6.4690,-0.1262,0.3052,55.75014804,48.74072021,1.96000004,
8.604128,6.4690,-0.1262,0.3052,55.75014804,48.74072021,1.96000004,
8.605179,6.4690,-0.1262,0.3052,55.75014804,48.74072021,1.96000004,
8.623283,3.6053,4.1629,-4.7517,55.75014804,48.74072021,1.96000004,
8.624828,3.6053,4.1629,-4.7517,55.75014804,48.74072021,1.96000004,
8.625402,3.6053,4.1629,-4.7517,55.75014804,48.74072021,1.96000004,
8.642412,3.6053,4.1629,-4.7517,55.75014804,48.74072021,1.96000004,
8.643581,3.6053,4.1629,-4.7517,55.75014804,48.74072021,1.96000004,
8.661903,3.6053,4.1629,-4.7517,55.75014804,48.74072021,1.96000004,
8.663071,3.6053,4.1629,-4.7517,55.75014804,48.74072021,1.96000004,
8.663693,4.8408,2.0894,-2.2818,55.75014804,48.74072021,1.96000004,
8.680169,4.8408,2.0894,-2.2818,55.75014804,48.74072021,1.96000004,
8.681415,4.8408,2.0894,-2.2818,55.75014804,48.74072021,1.96000004,
8.700230,4.8408,2.0894,-2.2818,55.75014804,48.74072021,1.96000004,
8.701585,4.8408,2.0894,-2.2818,55.75014804,48.74072021,1.96000004,
8.702205,6.2262,1.6745,-7.3159,55.75014804,48.74072021,1.96000004,
8.720051,6.2262,1.6745,-7.3159,55.75014804,48.74072021,1.96000004,
8.721108,6.2262,1.6745,-7.3159,55.75014804,48.74072021,1.96000004,
8.738906,6.2262,1.6745,-7.3159,55.75014804,48.74072021,1.96000004,
8.740055,6.2262,1.6745,-7.3159,55.75014804,48.74072021,1.96000004,
8.740626,5.3871,1.5212,2.3082,55.75014804,48.74072021,1.96000004,
8.758946,5.3871,1.5212,2.3082,55.75014804,48.74072021,1.96000004,
8.760108,5.3871,1.5212,2.3082,55.75014804,48.74072021,1.96000004,
8.777449,5.3871,1.5212,2.3082,55.75014804,48.74072021,1.96000004,
8.778293,5.3871,1.5212,2.3082,55.75014804,48.74072021,1.96000004,
8.778882,7.5123,1.4594,7.6960,55.75014804,48.74072021,1.96000004,
8.797539,7.5123,1.4594,7.6960,55.75014804,48.74072021,1.96000004,
8.798759,7.5123,1.4594,7.6960,55.75014804,48.74072021,1.96000004,
8.815484,2.0888,3.8163,3.3752,55.75014804,48.74072021,1.96000004,
8.817098,2.0888,3.8163,3.3752,55.75014804,48.74072021,1.96000004,
8.817692,2.0888,3.8163,3.3752,55.75014804,48.74072021,1.96000004,
8.835659,2.0888,3.8163,3.3752,55.75014804,48.74072021,1.96000004,
8.836867,2.0888,3.8163,3.3752,55.75014804,48.74072021,1.96000004,
8.854332,2.0888,3.8163,3.3752,55.75014804,48.74072021,1.96000004,
8.855435,2.0888,3.8163,3.3752,55.75014804,48.74072021,1.96000004,
8.856036,3.5243,-0.7861,2.8523,55.75014804,48.74072021,1.96000004,
8.873508,3.5243,-0.7861,2.8523,55.75014804,48.74072021,1.96000004,
8.874501,3.5243,-0.7861,2.8523,55.75014804,48.74072021,1.96000004,
8.893494,3.5243,-0.7861,2.8523,55.75014804,48.74072021,1.96000004,
8.894547,3.5243,-0.7861,2.8523,55.75014804,48.74072021,1.96000004,
8.895130,1.6904,-4.3115,0.2336,55.75014804,48.74072021,1.96000004,
8.912840,1.6904,-4.3115,0.2336,55.75014804,48.74072021,1.96000004,
8.913970,1.6904,-4.3115,0.2336,55.75014804,48.74072021,1.96000004,
8.930818,-3.2265,-0.8789,-5.8342,55.75014804,48.74072021,1.96000004,
8.932680,-3.2265,-0.8789,-5.8342,55.75014804,48.74072021,1.96000004,
8.933551,-3.2265,-0.8789,-5.8342,55.75014804,48.74072021,1.96000004,
8.949958,-3.2265,-0.8789,-5.8342,55.75014804,48.74072021,1.96000004,
8.950977,-3.2265,-0.8789,-5.8342,55.75014804,48.74072021,1.96000004,
8.969948,-3.2265,-0.8789,-5.8342,55.75014804,48.74072021,1.96000004,
8.970956,-3.2265,-0.8789,-5.8342,55.75014804,48.74072021,1.96000004,
8.971517,-2.1485,-1.6844,-2.6839,55.75014804,48.74072021,1.96000004,
8.989724,-2.1485,-1.6844,-2.6839,55.75014804,48.74072021,1.96000004,
8.990790,-2.1485,-1.6844,-2.6839,55.75014804,48.74072021,1.96000004,
9.008713,-2.1485,-1.6844,-2.6839,55.75014804,48.74072021,1.96000004,
9.009843,-2.1485,-1.6844,-2.6839,55.75014804,48.74072021,1.96000004,
9.010418,-2.3705,-1.5316,-0.6212,55.75014804,48.74072021,1.96000004,
9.027738,-2.3705,-1.5316,-0.6212,55.75014804,48.74072021,1.96000004,
9.028583,-2.3705,-1.5316,-0.6212,55.75014804,48.74072021,1.96000004,
9.046649,-2.3120,-0.3682,-1.1925,55.75014804,48.74072021,1.96000004,
9.047957,-2.3120,-0.3682,-1.1925,55.75014804,48.74072021,1.96000004,
9.048510,-2.3120,-0.3682,-1.1925,55.75014804,48.74072021,1.96000004,
9.064878,-2.3120,-0.3682,-1.1925,55.75014804,48.74072021,1.96000004,
9.065847,-2.3120,-0.3682,-1.1925,55.75014804,48.74072021,1.96000004,
9.092763,-2.3120,-0.3682,-1.1925,55.75014804,48.74072021,1.96000004,
9.093767,-2.3120,-0.3682,-1.1925,55.75014804,48.74072021,1.96000004,
9.094314,0.3449,1.1513,-1.4961,55.75014804,48.74072021,1.96000004,
9.105485,0.3449,1.1513,-1.4961,55.75014804,48.74072021,1.96000004,
9.106214,0.3449,1.1513,-1.4961,55.75014804,48.74072021,1.96000004,
9.124130,0.3449,1.1513,-1.4961,55.75014804,48.74072021,1.96000004,
9.124886,0.3449,1.1513,-1.4961,55.75014804,48.74072021,1.96000004,
9.125431,2.3808,0.0002,0.7599,55.75014804,48.74072021,1.96000004,
9.143455,2.3808,0.0002,0.7599,55.75014804,48.74072021,1.96000004,
9.144512,2.3808,0.0002,0.7599,55.75017790,48.74072337,2.25999999,
9.161372,2.3808,0.0002,0.7599,55.75017790,48.74072337,2.25999999,
9.162319,2.3808,0.0002,0.7599,55.75017790,48.74072337,2.25999999,
9.162927,-0.0087,1.4852,5.5821,55.75017790,48.74072337,2.25999999,
9.181066,-0.0087,1.4852,5.5821,55.75017790,48.74072337,2.25999999,
9.182256,-0.0087,1.4852,5.5821,55.75017790,48.74072337,2.25999999,
9.200380,-0.0087,1.4852,5.5821,55.75017790,48.74072337,2.25999999,
9.201324,-0.0087,1.4852,5.5821,55.75017790,48.74072337,2.25999999,
9.201853,2.4113,3.0918,1.0243,55.75017790,48.74072337,2.25999999,
9.219731,2.4113,3.0918,1.0243,55.75017790,48.74072337,2.25999999,
9.220701,2.4113,3.0918,1.0243,55.75017790,48.74072337,2.25999999,
9.238931,4.0918,4.1172,-1.4667,55.75017790,48.74072337,2.25999999,
9.240371,4.0918,4.1172,-1.4667,55.75017790,48.74072337,2.25999999,
9.240914,4.0918,4.1172,-1.4667,55.75017790,48.74072337,2.25999999,
9.257968,4.0918,4.1172,-1.4667,55.75017790,48.74072337,2.25999999,
9.258929,4.0918,4.1172,-1.4667,55.75017790,48.74072337,2.25999999,
9.276790,5.2519,3.8633,2.2244,55.75017790,48.74072337,2.25999999,
9.277878,5.2519,3.8633,2.2244,55.75017790,48.74072337,2.25999999,
9.278438,5.2519,3.8633,2.2244,55.75017790,48.74072337,2.25999999,
9.296632,5.2519,3.8633,2.2244,55.75017790,48.74072337,2.25999999,
9.297632,5.2519,3.8633,2.2244,55.75017790,48.74072337,2.25999999,
9.315233,5.2519,3.8633,2.2244,55.75017790,48.74072337,2.25999999,
9.316165,5.2519,3.8633,2.2244,55.75017790,48.74072337,2.25999999,
9.316828,4.0132,4.3561,-3.7695,55.75017790,48.74072337,2.25999999,
9.335568,4.0132,4.3561,-3.7695,55.75017790,48.74072337,2.25999999,
9.336772,4.0132,4.3561,-3.7695,55.75017790,48.74072337,2.25999999,
9.354687,4.0132,4.3561,-3.7695,55.75017790,48.74072337,2.25999999,
9.355772,4.0132,4.3561,-3.7695,55.75017790,48.74072337,2.25999999,
9.356530,8.4051,1.2529,1.5152,55.75017790,48.74072337,2.25999999,
9.372613,8.4051,1.2529,1.5152,55.75017790,48.74072337,2.25999999,
9.373627,8.4051,1.2529,1.5152,55.75017790,48.74072337,2.25999999,
9.393062,8.4051,1.2529,1.5152,55.75017790,48.74072337,2.25999999,
9.394124,8.4051,1.2529,1.5152,55.75017790,48.74072337,2.25999999,
9.394673,6.3584,0.7335,3.0066,55.75017790,48.74072337,2.25999999,
9.411438,6.3584,0.7335,3.0066,55.75017790,48.74072337,2.25999999,
9.412497,6.3584,0.7335,3.0066,55.75017790,48.74072337,2.25999999,
9.432200,6.3584,0.7335,3.0066,55.75017790,48.74072337,2.25999999,
9.433501,6.3584,0.7335,3.0066,55.75017790,48.74072337,2.25999999,
9.434152,6.1432,0.8419,4.0313,55.75017790,48.74072337,2.25999999,
9.451248,6.1432,0.8419,4.0313,55.75017790,48.74072337,2.25999999,
9.452261,6.1432,0.8419,4.0313,55.75017790,48.74072337,2.25999999,
9.470089,2.3293,-1.9893,2.8307,55.75017790,48.74072337,2.25999999,
9.471572,2.3293,-1.9893,2.8307,55.75017790,48.74072337,2.25999999,
9.472140,2.3293,-1.9893,2.8307,55.75017790,48.74072337,2.25999999,
9.488938,2.3293,-1.9893,2.8307,55.75017790,48.74072337,2.25999999,
9.490141,2.3293,-1.9893,2.8307,55.75017790,48.74072337,2.25999999,
9.508219,2.3293,-1.9893,2.8307,55.75017790,48.74072337,2.25999999,
9.509291,-2.0672,-3.3150,-0.7961,55.75017790,48.74072337,2.25999999,
9.510425,-2.0672,-3.3150,-0.7961,55.75017790,48.74072337,2.25999999,
9.527807,-2.0672,-3.3150,-0.7961,55.75017790,48.74072337,2.25999999,
9.528851,-2.0672,-3.3150,-0.7961,55.75017790,48.74072337,2.25999999,
9.546096,-2.0672,-3.3150,-0.7961,55.75017790,48.74072337,2.25999999,
9.547504,-2.0672,-3.3150,-0.7961,55.75017790,48.74072337,2.25999999,
9.548844,-4.4261,-2.5776,-5.7673,55.75017790,48.74072337,2.25999999,
9.565202,-4.4261,-2.5776,-5.7673,55.75017790,48.74072337,2.25999999,
9.566268,-4.4261,-2.5776,-5.7673,55.75017790,48.74072337,2.25999999,
9.584672,-4.4261,-2.5776,-5.7673,55.75017790,48.74072337,2.25999999,
9.585701,-4.4261,-2.5776,-5.7673,55.75017790,48.74072337,2.25999999,
9.586255,-1.8943,-4.5356,-3.5105,55.75017790,48.74072337,2.25999999,
9.604711,-1.8943,-4.5356,-3.5105,55.75017790,48.74072337,2.25999999,
9.605715,-1.8943,-4.5356,-3.5105,55.75017790,48.74072337,2.25999999,
9.624032,-1.8943,-4.5356,-3.5105,55.75017790,48.74072337,2.25999999,
9.625073,-1.8943,-4.5356,-3.5105,55.75017790,48.74072337,2.25999999,
9.625632,-2.6846,-2.8328,-4.5725,55.75017790,48.74072337,2.25999999,
9.644396,-2.6846,-2.8328,-4.5725,55.75017790,48.74072337,2.25999999,
9.645459,-2.6846,-2.8328,-4.5725,55.75017790,48.74072337,2.25999999,
9.662115,-2.6846,-2.8328,-4.5725,55.75017790,48.74072337,2.25999999,
9.663365,-2.6846,-2.8328,-4.5725,55.75017790,48.74072337,2.25999999,
9.664639,-2.5929,-0.5040,0.9760,55.75017790,48.74072337,2.25999999,
9.681326,-2.5929,-0.5040,0.9760,55.75017790,48.74072337,2.25999999,
9.682448,-2.5929,-0.5040,0.9760,55.75017790,48.74072337,2.25999999,
9.700617,-2.5929,-0.5040,0.9760,55.75017790,48.74072337,2.25999999,
9.701605,-0.8746,3.0970,3.2635,55.75017790,48.74072337,2.25999999,
9.702514,-0.8746,3.0970,3.2635,55.75017790,48.74072337,2.25999999,
9.720189,-0.8746,3.0970,3.2635,55.75017790,48.74072337,2.25999999,
9.721301,-0.8746,3.0970,3.2635,55.75017790,48.74072337,2.25999999,
9.739263,-0.8746,3.0970,3.2635,55.75017790,48.74072337,2.25999999,
9.740429,2.6682,3.1536,2.9355,55.75017790,48.74072337,2.25999999,
9.741409,2.6682,3.1536,2.9355,55.75017790,48.74072337,2.25999999,
9.758519,2.6682,3.1536,2.9355,55.75017790,48.74072337,2.25999999,
9.759516,2.6682,3.1536,2.9355,55.75017790,48.74072337,2.25999999,
9.777141,2.6682,3.1536,2.9355,55.75017790,48.74072337,2.25999999,
9.778113,0.1916,2.9447,3.8470,55.75017790,48.74072337,2.25999999,
9.779142,0.1916,2.9447,3.8470,55.75017790,48.74072337,2.25999999,
9.796786,0.1916,2.9447,3.8470,55.75017790,48.74072337,2.25999999,
9.797847,0.1916,2.9447,3.8470,55.75017790,48.74072337,2.25999999,
9.816781,2.1174,1.5631,1.9025,55.75017790,48.74072337,2.25999999,
9.818259,2.1174,1.5631,1.9025,55.75017790,48.74072337,2.25999999,
9.818860,2.1174,1.5631,1.9025,55.75017790,48.74072337,2.25999999,
9.835666,2.1174,1.5631,1.9025,55.75017790,48.74072337,2.25999999,
9.836986,2.1174,1.5631,1.9025,55.75017790,48.74072337,2.25999999,
9.855171,2.1174,1.5631,1.9025,55.75017790,48.74072337,2.25999999,
9.856401,2.1174,1.5631,1.9025,55.75017790,48.74072337,2.25999999,
9.856977,2.3327,3.2805,-1.8633,55.75017790,48.74072337,2.25999999,
9.873377,2.3327,3.2805,-1.8633,55.75017790,48.74072337,2.25999999,
9.874541,2.3327,3.2805,-1.8633,55.75017790,48.74072337,2.25999999,
9.892833,4.9404,3.9261,0.5958,55.75017790,48.74072337,2.25999999,
9.894433,4.9404,3.9261,0.5958,55.75017790,48.74072337,2.25999999,
9.895029,4.9404,3.9261,0.5958,55.75017790,48.74072337,2.25999999,
9.912211,4.9404,3.9261,0.5958,55.75017790,48.74072337,2.25999999,
9.913738,4.9404,3.9261,0.5958,55.75017790,48.74072337,2.25999999,
9.931010,4.9404,3.9261,0.5958,55.75017790,48.74072337,2.25999999,
9.932203,7.5216,3.5885,-6.6615,55.75017790,48.74072337,2.25999999,
9.933294,7.5216,3.5885,-6.6615,55.75017790,48.74072337,2.25999999,
9.950417,7.5216,3.5885,-6.6615,55.75017790,48.74072337,2.25999999,
9.951634,7.5216,3.5885,-6.6615,55.75017790,48.74072337,2.25999999,
9.970611,7.5216,3.5885,-6.6615,55.75017790,48.74072337,2.25999999,
9.971850,7.5216,3.5885,-6.6615,55.75017790,48.74072337,2.25999999,
9.972411,8.2108,-2.2833,8.5833,55.75017790,48.74072337,2.25999999,
9.988734,8.2108,-2.2833,8.5833,55.75017790,48.74072337,2.25999999,
9.989986,8.2108,-2.2833,8.5833,55.75017790,48.74072337,2.25999999,
10.008253,2.5284,-0.8506,2.4022,55.75017790,48.74072337,2.25999999,
10.009814,2.5284,-0.8506,2.4022,55.75017790,48.74072337,2.25999999,
10.010362,2.5284,-0.8506,2.4022,55.75017790,48.74072337,2.25999999,
10.027376,2.5284,-0.8506,2.4022,55.75017790,48.74072337,2.25999999,
10.028449,2.5284,-0.8506,2.4022,55.75017790,48.74072337,2.25999999,
10.046598,2.6910,1.5188,-1.2555,55.75017790,48.74072337,2.25999999,
10.048273,2.6910,1.5188,-1.2555,55.75017790,48.74072337,2.25999999,
10.048875,2.6910,1.5188,-1.2555,55.75017790,48.74072337,2.25999999,
10.065866,2.6910,1.5188,-1.2555,55.75017790,48.74072337,2.25999999,
10.067183,2.6910,1.5188,-1.2555,55.75017790,48.74072337,2.25999999,
10.091583,2.6910,1.5188,-1.2555,55.75017790,48.74072337,2.25999999,
10.092544,2.6910,1.5188,-1.2555,55.75017790,48.74072337,2.25999999,
10.093048,0.3500,0.7944,-5.1686,55.75017790,48.74072337,2.25999999,
10.104403,0.3500,0.7944,-5.1686,55.75017790,48.74072337,2.25999999,
10.104940,0.3500,0.7944,-5.1686,55.75017790,48.74072337,2.25999999,
10.125944,0.3500,0.7944,-5.1686,55.75017790,48.74072337,2.25999999,
10.126420,0.3500,0.7944,-5.1686,55.75018793,48.74076043,2.57999992,
10.126915,-3.4295,-2.7574,0.1480,55.75018793,48.74076043,2.57999992,
10.142604,-3.4295,-2.7574,0.1480,55.75018793,48.74076043,2.57999992,
10.144369,-3.4295,-2.7574,0.1480,55.75018793,48.74076043,2.57999992,
10.161699,-3.4295,-2.7574,0.1480,55.75018793,48.74076043,2.57999992,
10.162801,-3.4295,-2.7574,0.1480,55.75018793,48.74076043,2.57999992,
10.163453,-4.2263,-2.9430,2.4687,55.75018793,48.74076043,2.57999992,
10.181469,-4.2263,-2.9430,2.4687,55.75018793,48.74076043,2.57999992,
10.182688,-4.2263,-2.9430,2.4687,55.75018793,48.74076043,2.57999992,
10.201021,-1.7133,-2.4437,-0.7564,55.75018793,48.74076043,2.57999992,
10.202390,-1.7133,-2.4437,-0.7564,55.75018793,48.74076043,2.57999992,
10.202925,-1.7133,-2.4437,-0.7564,55.75018793,48.74076043,2.57999992,
10.220254,-1.7133,-2.4437,-0.7564,55.75018793,48.74076043,2.57999992,
10.221225,-1.7133,-2.4437,-0.7564,55.75018793,48.74076043,2.57999992,
10.239136,-1.7133,-2.4437,-0.7564,55.75018793,48.74076043,2.57999992,
10.240235,-1.7133,-2.4437,-0.7564,55.75018793,48.74076043,2.57999992,
10.240795,-2.9772,-0.9347,-0.9310,55.75018793,48.74076043,2.57999992,
10.258795,-2.9772,-0.9347,-0.9310,55.75018793,48.74076043,2.57999992,
10.259963,-2.9772,-0.9347,-0.9310,55.75018793,48.74076043,2.57999992,
10.278499,-2.9772,-0.9347,-0.9310,55.75018793,48.74076043,2.57999992,
10.279543,-2.9772,-0.9347,-0.9310,55.75018793,48.74076043,2.57999992,
10.280190,-3.8148,-1.8251,5.6651,55.75018793,48.74076043,2.57999992,
10.297392,-3.8148,-1.8251,5.6651,55.75018793,48.74076043,2.57999992,
10.298561,-3.8148,-1.8251,5.6651,55.75018793,48.74076043,2.57999992,
10.316502,-3.8148,-1.8251,5.6651,55.75018793,48.74076043,2.57999992,
10.317550,-3.8148,-1.8251,5.6651,55.75018793,48.74076043,2.57999992,
10.318101,-1.5900,1.8848,-5.8341,55.75018793,48.74076043,2.57999992,
10.335443,-1.5900,1.8848,-5.8341,55.75018793,48.74076043,2.57999992,
10.336407,-1.5900,1.8848,-5.8341,55.75018793,48.74076043,2.57999992,
10.354648,-1.5900,1.8848,-5.8341,55.75018793,48.74076043,2.57999992,
10.355617,-1.5900,1.8848,-5.8341,55.75018793,48.74076043,2.57999992,
10.356140,0.2560,-1.1418,2.4414,55.75018793,48.74076043,2.57999992,
10.374388,0.2560,-1.1418,2.4414,55.75018793,48.74076043,2.57999992,
10.375431,0.2560,-1.1418,2.4414,55.75018793,48.74076043,2.57999992,
10.393476,0.2560,-1.1418,2.4414,55.75018793,48.74076043,2.57999992,
10.394632,0.2560,-1.1418,2.4414,55.75018793,48.74076043,2.57999992,
10.395319,1.3014,0.1803,7.1516,55.75018793,48.74076043,2.57999992,
10.412788,1.3014,0.1803,7.1516,55.75018793,48.74076043,2.57999992,
10.414183,1.3014,0.1803,7.1516,55.75018793,48.74076043,2.57999992,
10.433171,1.3014,0.1803,7.1516,55.75018793,48.74076043,2.57999992,
10.434177,1.3014,0.1803,7.1516,55.75018793,48.74076043,2.57999992,
10.434727,-0.8726,5.6258,1.6666,55.75018793,48.74076043,2.57999992,
10.450997,-0.8726,5.6258,1.6666,55.75018793,48.74076043,2.57999992,
10.452066,-0.8726,5.6258,1.6666,55.75018793,48.74076043,2.57999992,
10.470109,-0.8726,5.6258,1.6666,55.75018793,48.74076043,2.57999992,
10.471088,-0.8726,5.6258,1.6666,55.75018793,48.74076043,2.57999992,
10.471650,3.7769,3.4637,-4.3629,55.75018793,48.74076043,2.57999992,
10.489324,3.7769,3.4637,-4.3629,55.75018793,48.74076043,2.57999992,
10.490517,3.7769,3.4637,-4.3629,55.75018793,48.74076043,2.57999992,
10.509566,3.7769,3.4637,-4.3629,55.75018793,48.74076043,2.57999992,
10.510718,3.7769,3.4637,-4.3629,55.75018793,48.74076043,2.57999992,
10.511325,8.1276,1.2210,-4.7720,55.75018793,48.74076043,2.57999992,
10.528148,8.1276,1.2210,-4.7720,55.75018793,48.74076043,2.57999992,
10.529446,8.1276,1.2210,-4.7720,55.75018793,48.74076043,2.57999992,
10.548289,8.1276,1.2210,-4.7720,55.75018793,48.74076043,2.57999992,
10.549263,8.1276,1.2210,-4.7720,55.75018793,48.74076043,2.57999992,
10.549867,0.5961,3.1101,-2.9703,55.75018793,48.74076043,2.57999992,
10.567193,0.5961,3.1101,-2.9703,55.75018793,48.74076043,2.57999992,
10.568217,0.5961,3.1101,-2.9703,55.75018793,48.74076043,2.57999992,
10.585783,0.5961,3.1101,-2.9703,55.75018793,48.74076043,2.57999992,
10.586857,5.4546,-1.2326,1.5416,55.75018793,48.74076043,2.57999992,
10.587776,5.4546,-1.2326,1.5416,55.75018793,48.74076043,2.57999992,
10.605360,5.4546,-1.2326,1.5416,55.75018793,48.74076043,2.57999992,
10.606469,5.4546,-1.2326,1.5416,55.75018793,48.74076043,2.57999992,
10.624364,5.4546,-1.2326,1.5416,55.75018793,48.74076043,2.57999992,
10.625273,5.4546,-1.2326,1.5416,55.75018793,48.74076043,2.57999992,
10.625929,1.2966,0.5607,-2.2646,55.75018793,48.74076043,2.57999992,
10.644425,1.2966,0.5607,-2.2646,55.75018793,48.74076043,2.57999992,
10.645437,1.2966,0.5607,-2.2646,55.75018793,48.74076043,2.57999992,
10.661790,1.2966,0.5607,-2.2646,55.75018793,48.74076043,2.57999992,
10.662651,3.2763,-3.2390,5.6163,55.75018793,48.74076043,2.57999992,
10.663563,3.2763,-3.2390,5.6163,55.75018793,48.74076043,2.57999992,
10.683079,3.2763,-3.2390,5.6163,55.75018793,48.74076043,2.57999992,
10.684253,3.2763,-3.2390,5.6163,55.75018793,48.74076043,2.57999992,
10.701012,3.2763,-3.2390,5.6163,55.75018793,48.74076043,2.57999992,
10.702366,3.2763,-3.2390,5.6163,55.75018793,48.74076043,2.57999992,
10.703193,-1.9760,-1.5948,3.5467,55.75018793,48.74076043,2.57999992,
10.720474,-1.9760,-1.5948,3.5467,55.75018793,48.74076043,2.57999992,
10.721462,-1.9760,-1.5948,3.5467,55.75018793,48.74076043,2.57999992,
10.739594,-3.1869,-0.2901,-6.7319,55.75018793,48.74076043,2.57999992,
10.741020,-3.1869,-0.2901,-6.7319,55.75018793,48.74076043,2.57999992,
10.741578,-3.1869,-0.2901,-6.7319,55.75018793,48.74076043,2.57999992,
10.758721,-3.1869,-0.2901,-6.7319,55.75018793,48.74076043,2.57999992,
10.759778,-3.1869,-0.2901,-6.7319,55.75018793,48.74076043,2.57999992,
10.778688,-3.1869,-0.2901,-6.7319,55.75018793,48.74076043,2.57999992,
10.780009,-3.1869,-0.2901,-6.7319,55.75018793,48.74076043,2.57999992,
10.780714,-0.1539,-3.9956,-1.4259,55.75018793,48.74076043,2.57999992,
10.798137,-0.1539,-3.9956,-1.4259,55.75018793,48.74076043,2.57999992,
10.799207,-0.1539,-3.9956,-1.4259,55.75018793,48.74076043,2.57999992,
10.816968,-1.5447,-3.0150,0.3721,55.75018793,48.74076043,2.57999992,
10.818494,-1.5447,-3.0150,0.3721,55.75018793,48.74076043,2.57999992,
10.819080,-1.5447,-3.0150,0.3721,55.75018793,48.74076043,2.57999992,
10.836727,-1.5447,-3.0150,0.3721,55.75018793,48.74076043,2.57999992,
10.837767,-1.5447,-3.0150,0.3721,55.75018793,48.74076043,2.57999992,
10.855512,-5.1663,0.6468,-4.1322,55.75018793,48.74076043,2.57999992,
10.857092,-5.1663,0.6468,-4.1322,55.75018793,48.74076043,2.57999992,
10.857640,-5.1663,0.6468,-4.1322,55.75018793,48.74076043,2.57999992,
10.874671,-5.1663,0.6468,-4.1322,55.75018793,48.74076043,2.57999992,
10.875502,-5.1663,0.6468,-4.1322,55.75018793,48.74076043,2.57999992,
10.894177,-5.1663,0.6468,-4.1322,55.75018793,48.74076043,2.57999992,
10.895389,-5.1663,0.6468,-4.1322,55.75018793,48.74076043,2.57999992,
10.896009,-6.9616,-0.3642,6.0960,55.75018793,48.74076043,2.57999992,
10.912585,-6.9616,-0.3642,6.0960,55.75018793,48.74076043,2.57999992,
10.913733,-6.9616,-0.3642,6.0960,55.75018793,48.74076043,2.57999992,
10.932388,-0.9805,-0.3138,-2.6931,55.75018793,48.74076043,2.57999992,
10.933973,-0.9805,-0.3138,-2.6931,55.75018793,48.74076043,2.57999992,
10.934499,-0.9805,-0.3138,-2.6931,55.75018793,48.74076043,2.57999992,
10.952007,-0.9805,-0.3138,-2.6931,55.75018793,48.74076043,2.57999992,
10.953161,-0.9805,-0.3138,-2.6931,55.75018793,48.74076043,2.57999992,
10.970712,-0.9805,-0.3138,-2.6931,55.75018793,48.74076043,2.57999992,
10.971657,-0.9805,-0.3138,-2.6931,55.75018793,48.74076043,2.57999992,
10.972214,-0.9484,-2.0484,7.9527,55.75018793,48.74076043,2.57999992,
10.990054,-0.9484,-2.0484,7.9527,55.75018793,48.74076043,2.57999992,
10.991034,-0.9484,-2.0484,7.9527,55.75018793,48.74076043,2.57999992,
11.008584,-0.9149,2.8392,0.5890,55.75018793,48.74076043,2.57999992,
11.010262,-0.9149,2.8392,0.5890,55.75018793,48.74076043,2.57999992,
11.010892,-0.9149,2.8392,0.5890,55.75018793,48.74076043,2.57999992,
11.028574,-0.9149,2.8392,0.5890,55.75018793,48.74076043,2.57999992,
11.029883,-0.9149,2.8392,0.5890,55.75018793,48.74076043,2.57999992,
11.048229,-0.9149,2.8392,0.5890,55.75018793,48.74076043,2.57999992,
11.049240,-0.9149,2.8392,0.5890,55.75018793,48.74076043,2.57999992,
11.049902,4.8595,2.5606,-10.4855,55.75018793,48.74076043,2.57999992,
11.066079,4.8595,2.5606,-10.4855,55.75018793,48.74076043,2.57999992,
11.067237,4.8595,2.5606,-10.4855,55.75018793,48.74076043,2.57999992,
11.096919,4.8595,2.5606,-10.4855,55.75018793,48.74076043,2.57999992,
11.098095,6.9078,-0.7156,4.2317,55.75018793,48.74076043,2.57999992,
11.099149,6.9078,-0.7156,4.2317,55.75018793,48.74076043,2.57999992,
11.105064,6.9078,-0.7156,4.2317,55.75018793,48.74076043,2.57999992,
11.105786,6.9078,-0.7156,4.2317,55.75018793,48.74076043,2.57999992,
11.126699,6.9078,-0.7156,4.2317,55.75018793,48.74076043,2.57999992,
11.127425,6.9078,-0.7156,4.2317,55.75018793,48.74076043,2.57999992,
11.127962,2.6673,2.5383,4.5473,55.75018793,48.74076043,2.57999992,
11.147847,2.6673,2.5383,4.5473,55.75018793,48.74076043,2.57999992,
11.148585,2.6673,2.5383,4.5473,55.75019422,48.74082268,3.36999989,
11.163239,2.6673,2.5383,4.5473,55.75019422,48.74082268,3.36999989,
11.164076,2.6673,2.5383,4.5473,55.75019422,48.74082268,3.36999989,
11.164540,3.6634,4.3594,-5.9023,55.75019422,48.74082268,3.36999989,
11.182033,3.6634,4.3594,-5.9023,55.75019422,48.74082268,3.36999989,
11.183013,3.6634,4.3594,-5.9023,55.75019422,48.74082268,3.36999989,
11.200858,3.6634,4.3594,-5.9023,55.75019422,48.74082268,3.36999989,
11.201819,6.5756,-1.2641,7.1567,55.75019422,48.74082268,3.36999989,
11.202784,6.5756,-1.2641,7.1567,55.75019422,48.74082268,3.36999989,
11.220415,6.5756,-1.2641,7.1567,55.75019422,48.74082268,3.36999989,
11.221365,6.5756,-1.2641,7.1567,55.75019422,48.74082268,3.36999989,
11.239904,6.5756,-1.2641,7.1567,55.75019422,48.74082268,3.36999989,
11.240877,6.5756,-1.2641,7.1567,55.75019422,48.74082268,3.36999989,
11.241449,-3.2086,2.1944,-4.5379,55.75019422,48.74082268,3.36999989,
11.259372,-3.2086,2.1944,-4.5379,55.75019422,48.74082268,3.36999989,
11.260566,-3.2086,2.1944,-4.5379,55.75019422,48.74082268,3.36999989,
11.278391,-3.2086,2.1944,-4.5379,55.75019422,48.74082268,3.36999989,
11.279714,4.9701,-2.0777,2.0192,55.75019422,48.74082268,3.36999989,
11.280958,4.9701,-2.0777,2.0192,55.75019422,48.74082268,3.36999989,
11.297472,4.9701,-2.0777,2.0192,55.75019422,48.74082268,3.36999989,
11.298404,4.9701,-2.0777,2.0192,55.75019422,48.74082268,3.36999989,
11.317007,4.9701,-2.0777,2.0192,55.75019422,48.74082268,3.36999989,
11.317980,4.9701,-2.0777,2.0192,55.75019422,48.74082268,3.36999989,
11.318498,-3.1148,-1.6762,-2.0102,55.75019422,48.74082268,3.36999989,
11.335861,-3.1148,-1.6762,-2.0102,55.75019422,48.74082268,3.36999989,
11.336903,-3.1148,-1.6762,-2.0102,55.75019422,48.74082268,3.36999989,
11.355144,-3.1148,-1.6762,-2.0102,55.75019422,48.74082268,3.36999989,
11.356099,-3.1148,-1.6762,-2.0102,55.75019422,48.74082268,3.36999989,
11.356720,-2.4273,-4.0844,2.9539,55.75019422,48.74082268,3.36999989,
11.373989,-2.4273,-4.0844,2.9539,55.75019422,48.74082268,3.36999989,
11.375070,-2.4273,-4.0844,2.9539,55.75019422,48.74082268,3.36999989,
11.392897,-2.4273,-4.0844,2.9539,55.75019422,48.74082268,3.36999989,
11.393956,-1.0418,-2.7952,-1.5257,55.75019422,48.74082268,3.36999989,
11.394931,-1.0418,-2.7952,-1.5257,55.75019422,48.74082268,3.36999989,
11.413435,-1.0418,-2.7952,-1.5257,55.75019422,48.74082268,3.36999989,
11.414458,-1.0418,-2.7952,-1.5257,55.75019422,48.74082268,3.36999989,
11.433137,-1.0418,-2.7952,-1.5257,55.75019422,48.74082268,3.36999989,
11.434164,-1.0418,-2.7952,-1.5257,55.75019422,48.74082268,3.36999989,
11.434719,-5.1609,-0.0624,-9.8206,55.75019422,48.74082268,3.36999989,
11.451952,-5.1609,-0.0624,-9.8206,55.75019422,48.74082268,3.36999989,
11.452927,-5.1609,-0.0624,-9.8206,55.75019422,48.74082268,3.36999989,
11.471159,-5.1609,-0.0624,-9.8206,55.75019422,48.74082268,3.36999989,
11.472306,-5.1609,-0.0624,-9.8206,55.75019422,48.74082268,3.36999989,
11.472901,-6.0474,-1.7114,-0.7439,55.75019422,48.74082268,3.36999989,
11.490560,-6.0474,-1.7114,-0.7439,55.75019422,48.74082268,3.36999989,
11.491606,-6.0474,-1.7114,-0.7439,55.75019422,48.74082268,3.36999989,
11.509288,-6.0474,-1.7114,-0.7439,55.75019422,48.74082268,3.36999989,
11.510840,-2.9951,-2.5978,3.1290,55.75019422,48.74082268,3.36999989,
11.512104,-2.9951,-2.5978,3.1290,55.75019422,48.74082268,3.36999989,
11.528745,-2.9951,-2.5978,3.1290,55.75019422,48.74082268,3.36999989,
11.529916,-2.9951,-2.5978,3.1290,55.75019422,48.74082268,3.36999989,
11.547936,0.5435,0.0711,-4.4892,55.75019422,48.74082268,3.36999989,
11.549458,0.5435,0.0711,-4.4892,55.75019422,48.74082268,3.36999989,
11.550158,0.5435,0.0711,-4.4892,55.75019422,48.74082268,3.36999989,
11.567168,0.5435,0.0711,-4.4892,55.75019422,48.74082268,3.36999989,
11.568230,0.5435,0.0711,-4.4892,55.75019422,48.74082268,3.36999989,
11.586738,0.5435,0.0711,-4.4892,55.75019422,48.74082268,3.36999989,
11.587770,0.5435,0.0711,-4.4892,55.75019422,48.74082268,3.36999989,
11.588372,3.1588,-3.3682,8.3832,55.75019422,48.74082268,3.36999989,
11.605750,3.1588,-3.3682,8.3832,55.75019422,48.74082268,3.36999989,
11.606755,3.1588,-3.3682,8.3832,55.75019422,48.74082268,3.36999989,
11.624112,-1.9631,2.2833,5.1114,55.75019422,48.74082268,3.36999989,
11.625695,-1.9631,2.2833,5.1114,55.75019422,48.74082268,3.36999989,
11.626358,-1.9631,2.2833,5.1114,55.75019422,48.74082268,3.36999989,
11.644625,-1.9631,2.2833,5.1114,55.75019422,48.74082268,3.36999989,
11.646025,-1.9631,2.2833,5.1114,55.75019422,48.74082268,3.36999989,
11.663500,-1.9631,2.2833,5.1114,55.75019422,48.74082268,3.36999989,
11.664534,-1.9631,2.2833,5.1114,55.75019422,48.74082268,3.36999989,
11.665126,0.4049,4.2562,-0.0309,55.75019422,48.74082268,3.36999989,
11.683339,0.4049,4.2562,-0.0309,55.75019422,48.74082268,3.36999989,
11.684359,0.4049,4.2562,-0.0309,55.75019422,48.74082268,3.36999989,
11.702207,0.4049,4.2562,-0.0309,55.75019422,48.74082268,3.36999989,
11.703381,0.4049,4.2562,-0.0309,55.75019422,48.74082268,3.36999989,
11.703954,6.5009,1.1604,-1.3363,55.75019422,48.74082268,3.36999989,
11.721450,6.5009,1.1604,-1.3363,55.75019422,48.74082268,3.36999989,
11.722471,6.5009,1.1604,-1.3363,55.75019422,48.74082268,3.36999989,
11.740134,6.5009,1.1604,-1.3363,55.75019422,48.74082268,3.36999989,
11.741167,6.5009,1.1604,-1.3363,55.75019422,48.74082268,3.36999989,
11.741734,1.3382,2.5981,1.9377,55.75019422,48.74082268,3.36999989,
11.758948,1.3382,2.5981,1.9377,55.75019422,48.74082268,3.36999989,
11.760292,1.3382,2.5981,1.9377,55.75019422,48.74082268,3.36999989,
11.779163,2.6982,1.9491,-4.7314,55.75019422,48.74082268,3.36999989,
11.780721,2.6982,1.9491,-4.7314,55.75019422,48.74082268,3.36999989,
11.781303,2.6982,1.9491,-4.7314,55.75019422,48.74082268,3.36999989,
11.798335,2.6982,1.9491,-4.7314,55.75019422,48.74082268,3.36999989,
11.799364,2.6982,1.9491,-4.7314,55.75019422,48.74082268,3.36999989,
11.817298,4.3243,-0.2092,-0.1940,55.75019422,48.74082268,3.36999989,
11.818781,4.3243,-0.2092,-0.1940,55.75019422,48.74082268,3.36999989,
11.819350,4.3243,-0.2092,-0.1940,55.75019422,48.74082268,3.36999989,
11.836705,4.3243,-0.2092,-0.1940,55.75019422,48.74082268,3.36999989,
11.837729,4.3243,-0.2092,-0.1940,55.75019422,48.74082268,3.36999989,
11.855457,4.3243,-0.2092,-0.1940,55.75019422,48.74082268,3.36999989,
11.856362,4.3243,-0.2092,-0.1940,55.75019422,48.74082268,3.36999989,
11.856960,-1.8542,0.5524,0.1098,55.75019422,48.74082268,3.36999989,
11.874938,-1.8542,0.5524,0.1098,55.75019422,48.74082268,3.36999989,
11.876060,-1.8542,0.5524,0.1098,55.75019422,48.74082268,3.36999989,
11.893823,2.2892,-2.1556,-0.1237,55.75019422,48.74082268,3.36999989,
11.895301,2.2892,-2.1556,-0.1237,55.75019422,48.74082268,3.36999989,
11.895862,2.2892,-2.1556,-0.1237,55.75019422,48.74082268,3.36999989,
11.913831,2.2892,-2.1556,-0.1237,55.75019422,48.74082268,3.36999989,
11.914955,2.2892,-2.1556,-0.1237,55.75019422,48.74082268,3.36999989,
11.932656,-1.3358,-3.0915,3.2357,55.75019422,48.74082268,3.36999989,
11.934071,-1.3358,-3.0915,3.2357,55.75019422,48.74082268,3.36999989,
11.934615,-1.3358,-3.0915,3.2357,55.75019422,48.74082268,3.36999989,
11.952759,-1.3358,-3.0915,3.2357,55.75019422,48.74082268,3.36999989,
11.953868,-1.3358,-3.0915,3.2357,55.75019422,48.74082268,3.36999989,
11.971285,-1.3358,-3.0915,3.2357,55.75019422,48.74082268,3.36999989,
11.972328,-1.3358,-3.0915,3.2357,55.75019422,48.74082268,3.36999989,
11.972875,-4.1447,-0.9597,-5.7674,55.75019422,48.74082268,3.36999989,
11.990026,-4.1447,-0.9597,-5.7674,55.75019422,48.74082268,3.36999989,
11.991097,-4.1447,-0.9597,-5.7674,55.75019422,48.74082268,3.36999989,
12.009343,-4.1447,-0.9597,-5.7674,55.75019422,48.74082268,3.36999989,
12.010568,-4.1447,-0.9597,-5.7674,55.75019422,48.74082268,3.36999989,
12.011136,-0.6775,-2.8283,-5.1654,55.75019422,48.74082268,3.36999989,
12.029351,-0.6775,-2.8283,-5.1654,55.75019422,48.74082268,3.36999989,
12.030482,-0.6775,-2.8283,-5.1654,55.75019422,48.74082268,3.36999989,
12.048608,-0.6775,-2.8283,-5.1654,55.75019422,48.74082268,3.36999989,
12.049605,-0.6775,-2.8283,-5.1654,55.75019422,48.74082268,3.36999989,
12.050326,0.2073,-3.2671,3.7887,55.75019422,48.74082268,3.36999989,
12.067722,0.2073,-3.2671,3.7887,55.75019422,48.74082268,3.36999989,
12.068747,0.2073,-3.2671,3.7887,55.75019422,48.74082268,3.36999989,
12.093753,0.2073,-3.2671,3.7887,55.75019422,48.74082268,3.36999989,
12.094715,0.2073,-3.2671,3.7887,55.75019422,48.74082268,3.36999989,
12.095288,-4.3190,-0.1219,-0.6814,55.75019422,48.74082268,3.36999989,
12.106867,-4.3190,-0.1219,-0.6814,55.75019422,48.74082268,3.36999989,
12.107594,-4.3190,-0.1219,-0.6814,55.75019422,48.74082268,3.36999989,
12.127135,-4.3190,-0.1219,-0.6814,55.75019422,48.74082268,3.36999989,
12.127736,-4.3190,-0.1219,-0.6814,55.75019422,48.74082268,3.36999989,
12.128122,-4.4875,-0.1376,2.7709,55.75019422,48.74082268,3.36999989,
12.144144,-4.4875,-0.1376,2.7709,55.75019422,48.74082268,3.36999989,
12.145089,-4.4875,-0.1376,2.7709,55.75020029,48.74087647,3.41000009,
12.163359,-4.4875,-0.1376,2.7709,55.75020029,48.74087647,3.41000009,
12.164214,-4.4875,-0.1376,2.7709,55.75020029,48.74087647,3.41000009,
12.164662,-1.8551,0.2204,-2.2178,55.75020029,48.74087647,3.41000009,
12.183281,-1.8551,0.2204,-2.2178,55.75020029,48.74087647,3.41000009,
12.184296,-1.8551,0.2204,-2.2178,55.75020029,48.74087647,3.41000009,
12.201905,-1.8551,0.2204,-2.2178,55.75020029,48.74087647,3.41000009,
12.203018,-1.8551,0.2204,-2.2178,55.75020029,48.74087647,3.41000009,
12.203640,-0.6789,-3.0571,6.7053,55.75020029,48.74087647,3.41000009,
12.220453,-0.6789,-3.0571,6.7053,55.75020029,48.74087647,3.41000009,
12.221237,-0.6789,-3.0571,6.7053,55.75020029,48.74087647,3.41000009,
12.239690,-0.6789,-3.0571,6.7053,55.75020029,48.74087647,3.41000009,
12.240741,-0.6789,-3.0571,6.7053,55.75020029,48.74087647,3.41000009,
12.241350,-2.7663,0.6463,4.5986,55.75020029,48.74087647,3.41000009,
12.258716,-2.7663,0.6463,4.5986,55.75020029,48.74087647,3.41000009,
12.259762,-2.7663,0.6463,4.5986,55.75020029,48.74087647,3.41000009,
12.278991,-2.7663,0.6463,4.5986,55.75020029,48.74087647,3.41000009,
12.280134,-2.7663,0.6463,4.5986,55.75020029,48.74087647,3.41000009,
12.280718,1.4241,1.5819,-1.8856,55.75020029,48.74087647,3.41000009,
12.298160,1.4241,1.5819,-1.8856,55.75020029,48.74087647,3.41000009,
12.299204,1.4241,1.5819,-1.8856,55.75020029,48.74087647,3.41000009,
12.317899,1.4241,1.5819,-1.8856,55.75020029,48.74087647,3.41000009,
12.318883,1.4241,1.5819,-1.8856,55.75020029,48.74087647,3.41000009,
12.319423,6.8329,1.6715,2.0562,55.75020029,48.74087647,3.41000009,
12.337704,6.8329,1.6715,2.0562,55.75020029,48.74087647,3.41000009,
12.338760,6.8329,1.6715,2.0562,55.75020029,48.74087647,3.41000009,
12.356205,6.8329,1.6715,2.0562,55.75020029,48.74087647,3.41000009,
12.357338,6.8329,1.6715,2.0562,55.75020029,48.74087647,3.41000009,
12.357983,4.5011,4.5856,-6.6468,55.75020029,48.74087647,3.41000009,
12.375415,4.5011,4.5856,-6.6468,55.75020029,48.74087647,3.41000009,
12.376720,4.5011,4.5856,-6.6468,55.75020029,48.74087647,3.41000009,
12.394995,4.5011,4.5856,-6.6468,55.75020029,48.74087647,3.41000009,
12.396020,4.5011,4.5856,-6.6468,55.75020029,48.74087647,3.41000009,
12.396786,7.6261,1.9617,-4.8617,55.75020029,48.74087647,3.41000009,
12.413814,7.6261,1.9617,-4.8617,55.75020029,48.74087647,3.41000009,
12.414832,7.6261,1.9617,-4.8617,55.75020029,48.74087647,3.41000009,
12.433273,7.6261,1.9617,-4.8617,55.75020029,48.74087647,3.41000009,
12.434266,7.6261,1.9617,-4.8617,55.75020029,48.74087647,3.41000009,
12.434814,8.8505,-2.4834,10.6877,55.75020029,48.74087647,3.41000009,
12.452285,8.8505,-2.4834,10.6877,55.75020029,48.74087647,3.41000009,
12.453351,8.8505,-2.4834,10.6877,55.75020029,48.74087647,3.41000009,
12.471884,8.8505,-2.4834,10.6877,55.75020029,48.74087647,3.41000009,
12.473092,8.8505,-2.4834,10.6877,55.75020029,48.74087647,3.41000009,
12.473827,-1.7761,2.8570,-2.7100,55.75020029,48.74087647,3.41000009,
12.489934,-1.7761,2.8570,-2.7100,55.75020029,48.74087647,3.41000009,
12.490926,-1.7761,2.8570,-2.7100,55.75020029,48.74087647,3.41000009,
12.509794,-1.7761,2.8570,-2.7100,55.75020029,48.74087647,3.41000009,
12.510766,-1.7761,2.8570,-2.7100,55.75020029,48.74087647,3.41000009,
12.511315,6.3072,-3.7101,5.0358,55.75020029,48.74087647,3.41000009,
12.528974,6.3072,-3.7101,5.0358,55.75020029,48.74087647,3.41000009,
12.530035,6.3072,-3.7101,5.0358,55.75020029,48.74087647,3.41000009,
12.548149,-5.7630,-2.2170,1.3253,55.75020029,48.74087647,3.41000009,
12.549528,-5.7630,-2.2170,1.3253,55.75020029,48.74087647,3.41000009,
12.550225,-5.7630,-2.2170,1.3253,55.75020029,48.74087647,3.41000009,
12.567652,-5.7630,-2.2170,1.3253,55.75020029,48.74087647,3.41000009,
12.568595,-5.7630,-2.2170,1.3253,55.75020029,48.74087647,3.41000009,
12.586991,-3.5562,-4.3191,-1.4612,55.75020029,48.74087647,3.41000009,
12.588354,-3.5562,-4.3191,-1.4612,55.75020029,48.74087647,3.41000009,
12.588926,-3.5562,-4.3191,-1.4612,55.75020029,48.74087647,3.41000009,
12.605540,-3.5562,-4.3191,-1.4612,55.75020029,48.74087647,3.41000009,
12.606518,-3.5562,-4.3191,-1.4612,55.75020029,48.74087647,3.41000009,
12.624770,-3.5562,-4.3191,-1.4612,55.75020029,48.74087647,3.41000009,
12.625862,-3.5562,-4.3191,-1.4612,55.75020029,48.74087647,3.41000009,
12.626519,-2.7949,-2.8941,-5.4629,55.75020029,48.74087647,3.41000009,
12.644680,-2.7949,-2.8941,-5.4629,55.75020029,48.74087647,3.41000009,
12.645610,-2.7949,-2.8941,-5.4629,55.75020029,48.74087647,3.41000009,
12.663679,-2.7949,-2.8941,-5.4629,55.75020029,48.74087647,3.41000009,
12.664627,-2.7949,-2.8941,-5.4629,55.75020029,48.74087647,3.41000009,
12.665176,-1.8182,-2.5880,-1.3618,55.75020029,48.74087647,3.41000009,
12.682384,-1.8182,-2.5880,-1.3618,55.75020029,48.74087647,3.41000009,
12.683410,-1.8182,-2.5880,-1.3618,55.75020029,48.74087647,3.41000009,
12.702218,-1.8182,-2.5880,-1.3618,55.75020029,48.74087647,3.41000009,
12.703219,-1.8182,-2.5880,-1.3618,55.75020029,48.74087647,3.41000009,
12.703779,-3.6006,-2.1218,-3.1554,55.75020029,48.74087647,3.41000009,
12.721314,-3.6006,-2.1218,-3.1554,55.75020029,48.74087647,3.41000009,
12.722249,-3.6006,-2.1218,-3.1554,55.75020029,48.74087647,3.41000009,
12.740444,-3.6006,-2.1218,-3.1554,55.75020029,48.74087647,3.41000009,
12.741454,-5.6043,-2.6555,3.3404,55.75020029,48.74087647,3.41000009,
12.742429,-5.6043,-2.6555,3.3404,55.75020029,48.74087647,3.41000009,
12.760219,-5.6043,-2.6555,3.3404,55.75020029,48.74087647,3.41000009,
12.761179,-5.6043,-2.6555,3.3404,55.75020029,48.74087647,3.41000009,
12.779181,-4.0741,0.2926,-4.1020,55.75020029,48.74087647,3.41000009,
12.780661,-4.0741,0.2926,-4.1020,55.75020029,48.74087647,3.41000009,
12.781222,-4.0741,0.2926,-4.1020,55.75020029,48.74087647,3.41000009,
12.798399,-4.0741,0.2926,-4.1020,55.75020029,48.74087647,3.41000009,
12.799405,-4.0741,0.2926,-4.1020,55.75020029,48.74087647,3.41000009,
12.817635,-4.0741,0.2926,-4.1020,55.75020029,48.74087647,3.41000009,
12.818610,-4.0741,0.2926,-4.1020,55.75020029,48.74087647,3.41000009,
12.819139,0.9701,-0.2383,5.3303,55.75020029,48.74087647,3.41000009,
12.836246,0.9701,-0.2383,5.3303,55.75020029,48.74087647,3.41000009,
12.837009,0.9701,-0.2383,5.3303,55.75020029,48.74087647,3.41000009,
12.856453,0.9701,-0.2383,5.3303,55.75020029,48.74087647,3.41000009,
12.857441,0.9701,-0.2383,5.3303,55.75020029,48.74087647,3.41000009,
12.858031,-3.8144,3.4018,2.2027,55.75020029,48.74087647,3.41000009,
12.874718,-3.8144,3.4018,2.2027,55.75020029,48.74087647,3.41000009,
12.875645,-3.8144,3.4018,2.2027,55.75020029,48.74087647,3.41000009,
12.894671,-3.8144,3.4018,2.2027,55.75020029,48.74087647,3.41000009,
12.895626,-3.8144,3.4018,2.2027,55.75020029,48.74087647,3.41000009,
12.896155,1.7042,2.3803,-2.3221,55.75020029,48.74087647,3.41000009,
12.914091,1.7042,2.3803,-2.3221,55.75020029,48.74087647,3.41000009,
12.915067,1.7042,2.3803,-2.3221,55.75020029,48.74087647,3.41000009,
12.933285,1.7042,2.3803,-2.3221,55.75020029,48.74087647,3.41000009,
12.934264,8.2552,0.5798,-1.0506,55.75020029,48.74087647,3.41000009,
12.935195,8.2552,0.5798,-1.0506,55.75020029,48.74087647,3.41000009,
12.952345,8.2552,0.5798,-1.0506,55.75020029,48.74087647,3.41000009,
12.953409,8.2552,0.5798,-1.0506,55.75020029,48.74087647,3.41000009,
12.971206,3.8006,2.4355,7.1891,55.75020029,48.74087647,3.41000009,
12.972755,3.8006,2.4355,7.1891,55.75020029,48.74087647,3.41000009,
12.973492,3.8006,2.4355,7.1891,55.75020029,48.74087647,3.41000009,
12.990044,3.8006,2.4355,7.1891,55.75020029,48.74087647,3.41000009,
12.991350,3.8006,2.4355,7.1891,55.75020029,48.74087647,3.41000009,
13.010513,3.9746,3.1469,-9.5707,55.75020029,48.74087647,3.41000009,
13.012059,3.9746,3.1469,-9.5707,55.75020029,48.74087647,3.41000009,
13.012595,3.9746,3.1469,-9.5707,55.75020029,48.74087647,3.41000009,
13.028465,3.9746,3.1469,-9.5707,55.75020029,48.74087647,3.41000009,
13.029456,3.9746,3.1469,-9.5707,55.75020029,48.74087647,3.41000009,
13.048832,3.9746,3.1469,-9.5707,55.75020029,48.74087647,3.41000009,
13.050003,3.9746,3.1469,-9.5707,55.75020029,48.74087647,3.41000009,
13.050649,7.5790,-2.3858,7.4829,55.75020029,48.74087647,3.41000009,
13.067688,7.5790,-2.3858,7.4829,55.75020029,48.74087647,3.41000009,
13.068758,7.5790,-2.3858,7.4829,55.75020029,48.74087647,3.41000009,
13.087490,-0.9396,-0.5134,-3.4710,55.75020029,48.74087647,3.41000009,
13.088821,-0.9396,-0.5134,-3.4710,55.75020029,48.74087647,3.41000009,
13.089410,-0.9396,-0.5134,-3.4710,55.75020029,48.74087647,3.41000009,
13.105547,-0.9396,-0.5134,-3.4710,55.75020029,48.74087647,3.41000009,
13.106415,-0.9396,-0.5134,-3.4710,55.75020029,48.74087647,3.41000009,
13.125651,-0.9396,-0.5134,-3.4710,55.75020029,48.74087647,3.41000009,
13.126537,-0.9396,-0.5134,-3.4710,55.75020029,48.74087647,3.41000009,
13.126964,3.3414,-1.6005,-1.9375,55.75020029,48.74087647,3.41000009,
13.144629,3.3414,-1.6005,-1.9375,55.75020029,48.74087647,3.41000009,
13.145638,3.3414,-1.6005,-1.9375,55.75020294,48.74093742,3.40000010,
13.163748,3.3414,-1.6005,-1.9375,55.75020294,48.74093742,3.40000010,
13.164767,3.3414,-1.6005,-1.9375,55.75020294,48.74093742,3.40000010,
13.165309,-2.8310,-4.9536,9.5777,55.75020294,48.74093742,3.40000010,
13.182843,-2.8310,-4.9536,9.5777,55.75020294,48.74093742,3.40000010,
13.183912,-2.8310,-4.9536,9.5777,55.75020294,48.74093742,3.40000010,
13.203191,-2.8310,-4.9536,9.5777,55.75020294,48.74093742,3.40000010,
13.204262,-2.8310,-4.9536,9.5777,55.75020294,48.74093742,3.40000010,
13.204861,-6.1317,-3.5653,3.8539,55.75020294,48.74093742,3.40000010,
13.221338,-6.1317,-3.5653,3.8539,55.75020294,48.74093742,3.40000010,
13.222283,-6.1317,-3.5653,3.8539,55.75020294,48.74093742,3.40000010,
13.241198,-6.1317,-3.5653,3.8539,55.75020294,48.74093742,3.40000010,
13.242405,-6.1317,-3.5653,3.8539,55.75020294,48.74093742,3.40000010,
13.243041,-2.4299,-3.4370,-2.3561,55.75020294,48.74093742,3.40000010,
13.260407,-2.4299,-3.4370,-2.3561,55.75020294,48.74093742,3.40000010,
13.261386,-2.4299,-3.4370,-2.3561,55.75020294,48.74093742,3.40000010,
13.280351,-2.4299,-3.4370,-2.3561,55.75020294,48.74093742,3.40000010,
13.281409,-2.4299,-3.4370,-2.3561,55.75020294,48.74093742,3.40000010,
13.281971,-0.1595,-2.8354,-3.1651,55.75020294,48.74093742,3.40000010,
13.298689,-0.1595,-2.8354,-3.1651,55.75020294,48.74093742,3.40000010,
13.299804,-0.1595,-2.8354,-3.1651,55.75020294,48.74093742,3.40000010,
13.318570,-0.1595,-2.8354,-3.1651,55.75020294,48.74093742,3.40000010,
13.319729,-4.3245,-1.4441,-1.4732,55.75020294,48.74093742,3.40000010,
13.320777,-4.3245,-1.4441,-1.4732,55.75020294,48.74093742,3.40000010,
13.336940,-4.3245,-1.4441,-1.4732,55.75020294,48.74093742,3.40000010,
13.337970,-4.3245,-1.4441,-1.4732,55.75020294,48.74093742,3.40000010,
13.357151,-4.3245,-1.4441,-1.4732,55.75020294,48.74093742,3.40000010,
13.358417,-4.3245,-1.4441,-1.4732,55.75020294,48.74093742,3.40000010,
13.359071,-7.9307,-1.3241,-4.0963,55.75020294,48.74093742,3.40000010,
13.376023,-7.9307,-1.3241,-4.0963,55.75020294,48.74093742,3.40000010,
13.377169,-7.9307,-1.3241,-4.0963,55.75020294,48.74093742,3.40000010,
13.395315,-3.7123,-4.6806,5.6499,55.75020294,48.74093742,3.40000010,
13.396891,-3.7123,-4.6806,5.6499,55.75020294,48.74093742,3.40000010,
13.397497,-3.7123,-4.6806,5.6499,55.75020294,48.74093742,3.40000010,
13.415053,-3.7123,-4.6806,5.6499,55.75020294,48.74093742,3.40000010,
13.416077,-3.7123,-4.6806,5.6499,55.75020294,48.74093742,3.40000010,
13.433711,-9.9239,4.6275,-8.8579,55.75020294,48.74093742,3.40000010,
13.435191,-9.9239,4.6275,-8.8579,55.75020294,48.74093742,3.40000010,
13.435731,-9.9239,4.6275,-8.8579,55.75020294,48.74093742,3.40000010,
13.452472,-9.9239,4.6275,-8.8579,55.75020294,48.74093742,3.40000010,
13.453304,-9.9239,4.6275,-8.8579,55.75020294,48.74093742,3.40000010,
13.473243,-9.9239,4.6275,-8.8579,55.75020294,48.74093742,3.40000010,
13.474482,2.3122,-2.9559,-1.3765,55.75020294,48.74093742,3.40000010,
13.475775,2.3122,-2.9559,-1.3765,55.75020294,48.74093742,3.40000010,
13.490519,2.3122,-2.9559,-1.3765,55.75020294,48.74093742,3.40000010,
13.491566,2.3122,-2.9559,-1.3765,55.75020294,48.74093742,3.40000010,
13.511252,2.3122,-2.9559,-1.3765,55.75020294,48.74093742,3.40000010,
13.512347,2.3122,-2.9559,-1.3765,55.75020294,48.74093742,3.40000010,
13.512899,1.8660,-1.7759,6.2771,55.75020294,48.74093742,3.40000010,
13.529697,1.8660,-1.7759,6.2771,55.75020294,48.74093742,3.40000010,
13.530670,1.8660,-1.7759,6.2771,55.75020294,48.74093742,3.40000010,
13.548955,-1.5658,3.5551,-6.3437,55.75020294,48.74093742,3.40000010,
13.550594,-1.5658,3.5551,-6.3437,55.75020294,48.74093742,3.40000010,
13.551158,-1.5658,3.5551,-6.3437,55.75020294,48.74093742,3.40000010,
13.568404,-1.5658,3.5551,-6.3437,55.75020294,48.74093742,3.40000010,
13.569436,-1.5658,3.5551,-6.3437,55.75020294,48.74093742,3.40000010,
13.586750,-1.5658,3.5551,-6.3437,55.75020294,48.74093742,3.40000010,
13.587830,5.0829,-0.4762,2.2652,55.75020294,48.74093742,3.40000010,
13.588974,5.0829,-0.4762,2.2652,55.75020294,48.74093742,3.40000010,
13.607093,5.0829,-0.4762,2.2652,55.75020294,48.74093742,3.40000010,
13.608319,5.0829,-0.4762,2.2652,55.75020294,48.74093742,3.40000010,
13.626267,4.6462,0.4578,1.6763,55.75020294,48.74093742,3.40000010,
13.627743,4.6462,0.4578,1.6763,55.75020294,48.74093742,3.40000010,
13.628309,4.6462,0.4578,1.6763,55.75020294,48.74093742,3.40000010,
13.645525,4.6462,0.4578,1.6763,55.75020294,48.74093742,3.40000010,
13.646623,4.6462,0.4578,1.6763,55.75020294,48.74093742,3.40000010,
13.663606,4.6462,0.4578,1.6763,55.75020294,48.74093742,3.40000010,
